rawID	subjID	rt	choice	effort	reward	group	framework	group_framework	trials
91	1001	3.316	1	8	-5	HC	loss	loss2	1
91	1001	0.969	1	2	-5	HC	loss	loss2	2
91	1001	0.876	1	2	-15	HC	loss	loss2	3
91	1001	1.018	1	6	-10	HC	loss	loss2	4
91	1001	1.171	1	10	-15	HC	loss	loss2	5
91	1001	1.622	1	4	-15	HC	loss	loss2	6
91	1001	4.23	1	10	-5	HC	loss	loss2	7
91	1001	1.582	1	2	-20	HC	loss	loss2	8
91	1001	0.92	1	2	-10	HC	loss	loss2	9
91	1001	1.533	1	4	-25	HC	loss	loss2	10
91	1001	1.49	1	6	-5	HC	loss	loss2	11
91	1001	1.463	1	10	-10	HC	loss	loss2	12
91	1001	26.454	1	4	-10	HC	loss	loss2	13
91	1001	1.174	1	8	-15	HC	loss	loss2	14
91	1001	1.767	1	6	-25	HC	loss	loss2	15
91	1001	1.362	1	4	-5	HC	loss	loss2	16
91	1001	2.581	1	10	-25	HC	loss	loss2	17
91	1001	1.479	1	8	-20	HC	loss	loss2	18
91	1001	1.246	1	6	-20	HC	loss	loss2	19
91	1001	1.317	1	4	-20	HC	loss	loss2	20
91	1001	1.338	1	8	-10	HC	loss	loss2	21
91	1001	1.31	1	2	-25	HC	loss	loss2	22
91	1001	1.251	1	6	-15	HC	loss	loss2	23
91	1001	3.187	1	8	-25	HC	loss	loss2	24
91	1001	1.869	0	10	-20	HC	loss	loss2	25
91	1001	0.743	1	8	-5	HC	loss	loss2	26
91	1001	0.795	1	4	-5	HC	loss	loss2	27
91	1001	1.333	0	10	-25	HC	loss	loss2	28
91	1001	1.298	1	6	-20	HC	loss	loss2	29
91	1001	1.424	1	6	-10	HC	loss	loss2	30
91	1001	1.561	0	10	-20	HC	loss	loss2	31
91	1001	0.989	1	2	-5	HC	loss	loss2	32
91	1001	3.743	1	8	-15	HC	loss	loss2	33
91	1001	0.971	1	4	-15	HC	loss	loss2	34
91	1001	1.462	1	2	-20	HC	loss	loss2	35
91	1001	0.717	1	8	-25	HC	loss	loss2	36
91	1001	1.266	0	10	-5	HC	loss	loss2	37
91	1001	0.738	1	6	-25	HC	loss	loss2	38
91	1001	2.238	1	4	-20	HC	loss	loss2	39
91	1001	1.327	1	4	-10	HC	loss	loss2	40
91	1001	1.148	0	10	-15	HC	loss	loss2	41
91	1001	0.688	1	4	-25	HC	loss	loss2	42
91	1001	1.046	1	2	-25	HC	loss	loss2	43
91	1001	1.302	0	10	-10	HC	loss	loss2	44
91	1001	0.853	1	2	-15	HC	loss	loss2	45
91	1001	1.437	1	8	-10	HC	loss	loss2	46
91	1001	2.621	1	6	-15	HC	loss	loss2	47
91	1001	2.871	1	2	-10	HC	loss	loss2	48
91	1001	0.926	1	8	-20	HC	loss	loss2	49
91	1001	1.627	1	6	-5	HC	loss	loss2	50
92	1002	2.65	1	8	-20	HC	loss	loss2	1
92	1002	1.001	1	6	-5	HC	loss	loss2	2
92	1002	0.596	1	4	-10	HC	loss	loss2	3
92	1002	0.79	1	8	-10	HC	loss	loss2	4
92	1002	0.768	1	10	-15	HC	loss	loss2	5
92	1002	0.691	1	8	-5	HC	loss	loss2	6
92	1002	0.88	1	8	-15	HC	loss	loss2	7
92	1002	1.535	1	10	-10	HC	loss	loss2	8
92	1002	0.539	1	6	-20	HC	loss	loss2	9
92	1002	6.846	1	2	-15	HC	loss	loss2	10
92	1002	0.758	1	4	-15	HC	loss	loss2	11
92	1002	1.289	1	2	-25	HC	loss	loss2	12
92	1002	1.086	1	2	-10	HC	loss	loss2	13
92	1002	2.644	1	10	-5	HC	loss	loss2	14
92	1002	1.236	1	2	-5	HC	loss	loss2	15
92	1002	1.109	1	6	-10	HC	loss	loss2	16
92	1002	3.058	1	10	-20	HC	loss	loss2	17
92	1002	1.065	1	6	-15	HC	loss	loss2	18
92	1002	3.192	1	4	-5	HC	loss	loss2	19
92	1002	0.881	1	4	-20	HC	loss	loss2	20
92	1002	0.904	1	2	-20	HC	loss	loss2	21
92	1002	2.59	1	6	-25	HC	loss	loss2	22
92	1002	0.864	1	10	-25	HC	loss	loss2	23
92	1002	1.151	1	8	-25	HC	loss	loss2	24
92	1002	3.227	1	4	-25	HC	loss	loss2	25
92	1002	0.559	1	2	-10	HC	loss	loss2	26
92	1002	0.674	1	2	-5	HC	loss	loss2	27
92	1002	0.977	1	10	-10	HC	loss	loss2	28
92	1002	1.5	1	8	-15	HC	loss	loss2	29
92	1002	3.93	1	8	-20	HC	loss	loss2	30
92	1002	0.823	1	10	-25	HC	loss	loss2	31
92	1002	1.72	1	8	-25	HC	loss	loss2	32
92	1002	1.453	1	10	-5	HC	loss	loss2	33
92	1002	1.373	1	4	-25	HC	loss	loss2	34
92	1002	0.68	1	6	-5	HC	loss	loss2	35
92	1002	0.943	1	6	-20	HC	loss	loss2	36
92	1002	0.875	1	6	-15	HC	loss	loss2	37
92	1002	0.738	1	4	-5	HC	loss	loss2	38
92	1002	1.334	1	8	-5	HC	loss	loss2	39
92	1002	0.298	1	8	-10	HC	loss	loss2	40
92	1002	0.793	1	4	-15	HC	loss	loss2	41
92	1002	0.835	1	2	-15	HC	loss	loss2	42
92	1002	0.819	1	2	-25	HC	loss	loss2	43
92	1002	1.165	1	6	-10	HC	loss	loss2	44
92	1002	1.008	1	10	-15	HC	loss	loss2	45
92	1002	1.578	1	4	-20	HC	loss	loss2	46
92	1002	2.052	1	4	-10	HC	loss	loss2	47
92	1002	2.597	1	2	-20	HC	loss	loss2	48
92	1002	1.191	1	6	-25	HC	loss	loss2	49
92	1002	2.481	1	10	-20	HC	loss	loss2	50
95	1003	3.934	1	2	-5	HC	loss	loss2	1
95	1003	1.211	1	6	-10	HC	loss	loss2	2
95	1003	0.636	1	4	-15	HC	loss	loss2	3
95	1003	0.949	1	4	-25	HC	loss	loss2	4
95	1003	1.513	1	8	-10	HC	loss	loss2	5
95	1003	0.302	1	10	-10	HC	loss	loss2	6
95	1003	0.484	1	6	-5	HC	loss	loss2	7
95	1003	1.363	1	10	-20	HC	loss	loss2	8
95	1003	0.983	1	8	-5	HC	loss	loss2	9
95	1003	0.777	1	2	-20	HC	loss	loss2	10
95	1003	0.996	1	4	-5	HC	loss	loss2	11
95	1003	2.166	1	10	-5	HC	loss	loss2	12
95	1003	1.002	1	10	-15	HC	loss	loss2	13
95	1003	0.748	1	2	-25	HC	loss	loss2	14
95	1003	2.072	1	8	-25	HC	loss	loss2	15
95	1003	1.551	1	8	-20	HC	loss	loss2	16
95	1003	1.099	1	6	-15	HC	loss	loss2	17
95	1003	1.649	1	6	-25	HC	loss	loss2	18
95	1003	0.769	1	4	-10	HC	loss	loss2	19
95	1003	1.804	1	8	-15	HC	loss	loss2	20
95	1003	0.431	1	6	-20	HC	loss	loss2	21
95	1003	2.351	1	4	-20	HC	loss	loss2	22
95	1003	2.187	1	10	-25	HC	loss	loss2	23
95	1003	0.742	1	2	-10	HC	loss	loss2	24
95	1003	1.034	1	2	-15	HC	loss	loss2	25
95	1003	0.866	1	8	-20	HC	loss	loss2	26
95	1003	2.69	0	10	-5	HC	loss	loss2	27
95	1003	2.824	1	10	-25	HC	loss	loss2	28
95	1003	1.481	1	8	-10	HC	loss	loss2	29
95	1003	0.999	1	10	-10	HC	loss	loss2	30
95	1003	0.673	1	6	-20	HC	loss	loss2	31
95	1003	1.128	1	2	-15	HC	loss	loss2	32
95	1003	1.165	1	4	-5	HC	loss	loss2	33
95	1003	1.36	1	10	-15	HC	loss	loss2	34
95	1003	1.324	1	4	-15	HC	loss	loss2	35
95	1003	0.929	1	6	-10	HC	loss	loss2	36
95	1003	1.509	1	8	-5	HC	loss	loss2	37
95	1003	2.619	1	4	-10	HC	loss	loss2	38
95	1003	0.812	1	2	-5	HC	loss	loss2	39
95	1003	3.67	1	6	-25	HC	loss	loss2	40
95	1003	0.917	1	2	-20	HC	loss	loss2	41
95	1003	2.723	0	10	-20	HC	loss	loss2	42
95	1003	0.927	1	2	-10	HC	loss	loss2	43
95	1003	0.916	1	4	-25	HC	loss	loss2	44
95	1003	0.746	1	8	-15	HC	loss	loss2	45
95	1003	0.494	1	6	-5	HC	loss	loss2	46
95	1003	1.027	1	2	-25	HC	loss	loss2	47
95	1003	0.284	1	6	-15	HC	loss	loss2	48
95	1003	0.195	1	8	-25	HC	loss	loss2	49
95	1003	0.709	1	4	-20	HC	loss	loss2	50
911	1004	4.178	1	10	-5	HC	loss	loss2	1
911	1004	0.813	1	4	-20	HC	loss	loss2	2
911	1004	1.493	1	8	-15	HC	loss	loss2	3
911	1004	1.019	1	2	-25	HC	loss	loss2	4
911	1004	1.172	1	10	-25	HC	loss	loss2	5
911	1004	0.894	1	8	-25	HC	loss	loss2	6
911	1004	0.739	1	6	-20	HC	loss	loss2	7
911	1004	0.59	1	2	-10	HC	loss	loss2	8
911	1004	1.239	1	4	-5	HC	loss	loss2	9
911	1004	0.894	1	6	-25	HC	loss	loss2	10
911	1004	0.666	1	6	-10	HC	loss	loss2	11
911	1004	1.169	1	2	-5	HC	loss	loss2	12
911	1004	1.404	1	6	-15	HC	loss	loss2	13
911	1004	1.477	1	10	-20	HC	loss	loss2	14
911	1004	0.971	1	4	-10	HC	loss	loss2	15
911	1004	0.942	1	2	-15	HC	loss	loss2	16
911	1004	1.759	1	10	-15	HC	loss	loss2	17
911	1004	0.891	1	8	-5	HC	loss	loss2	18
911	1004	1.064	1	10	-10	HC	loss	loss2	19
911	1004	0.486	1	2	-20	HC	loss	loss2	20
911	1004	1.253	1	4	-25	HC	loss	loss2	21
911	1004	0.659	1	8	-20	HC	loss	loss2	22
911	1004	0.978	1	6	-5	HC	loss	loss2	23
911	1004	0.668	1	4	-15	HC	loss	loss2	24
911	1004	0.579	1	8	-10	HC	loss	loss2	25
911	1004	0.54	1	8	-15	HC	loss	loss2	26
911	1004	1.464	1	10	-15	HC	loss	loss2	27
911	1004	1.071	1	4	-15	HC	loss	loss2	28
911	1004	0.942	1	8	-10	HC	loss	loss2	29
911	1004	1.09	1	10	-20	HC	loss	loss2	30
911	1004	0.664	1	2	-5	HC	loss	loss2	31
911	1004	0.704	1	4	-10	HC	loss	loss2	32
911	1004	0.717	1	10	-5	HC	loss	loss2	33
911	1004	1.099	1	6	-25	HC	loss	loss2	34
911	1004	0.729	1	2	-10	HC	loss	loss2	35
911	1004	0.694	1	6	-20	HC	loss	loss2	36
911	1004	0.58	1	8	-5	HC	loss	loss2	37
911	1004	0.439	1	6	-5	HC	loss	loss2	38
911	1004	0.479	1	8	-25	HC	loss	loss2	39
911	1004	0.389	1	2	-25	HC	loss	loss2	40
911	1004	2.2	1	4	-25	HC	loss	loss2	41
911	1004	1.61	1	4	-5	HC	loss	loss2	42
911	1004	1.643	1	10	-25	HC	loss	loss2	43
911	1004	0.579	1	6	-15	HC	loss	loss2	44
911	1004	0.774	1	6	-10	HC	loss	loss2	45
911	1004	1.121	1	10	-10	HC	loss	loss2	46
911	1004	0.71	1	2	-20	HC	loss	loss2	47
911	1004	1.228	1	4	-20	HC	loss	loss2	48
911	1004	0.636	1	2	-15	HC	loss	loss2	49
911	1004	0.733	1	8	-20	HC	loss	loss2	50
913	1005	2.554	1	4	-15	HC	loss	loss2	1
913	1005	2.821	0	8	-5	HC	loss	loss2	2
913	1005	1.503	1	2	-15	HC	loss	loss2	3
913	1005	1.397	1	6	-15	HC	loss	loss2	4
913	1005	1.967	1	8	-20	HC	loss	loss2	5
913	1005	1.522	0	6	-5	HC	loss	loss2	6
913	1005	2.279	1	6	-10	HC	loss	loss2	7
913	1005	1.878	1	4	-25	HC	loss	loss2	8
913	1005	2.253	1	2	-10	HC	loss	loss2	9
913	1005	6.373	1	8	-25	HC	loss	loss2	10
913	1005	1.28	1	6	-25	HC	loss	loss2	11
913	1005	2.462	1	8	-15	HC	loss	loss2	12
913	1005	3.998	0	10	-25	HC	loss	loss2	13
913	1005	2.72	0	10	-10	HC	loss	loss2	14
913	1005	1.077	0	10	-5	HC	loss	loss2	15
913	1005	3.54	0	10	-20	HC	loss	loss2	16
913	1005	2.752	1	6	-20	HC	loss	loss2	17
913	1005	1.044	0	10	-15	HC	loss	loss2	18
913	1005	0.773	1	4	-20	HC	loss	loss2	19
913	1005	2.047	0	4	-5	HC	loss	loss2	20
913	1005	1.511	1	2	-5	HC	loss	loss2	21
913	1005	1.397	1	2	-20	HC	loss	loss2	22
913	1005	0.839	1	2	-25	HC	loss	loss2	23
913	1005	1.887	0	8	-10	HC	loss	loss2	24
913	1005	1.022	1	4	-10	HC	loss	loss2	25
913	1005	1.507	1	8	-25	HC	loss	loss2	26
913	1005	1.12	1	6	-10	HC	loss	loss2	27
913	1005	0.31	1	10	-25	HC	loss	loss2	28
913	1005	0.371	1	8	-10	HC	loss	loss2	29
913	1005	0.951	1	8	-20	HC	loss	loss2	30
913	1005	1.715	1	4	-10	HC	loss	loss2	31
913	1005	1.904	1	8	-15	HC	loss	loss2	32
913	1005	1.63	1	4	-25	HC	loss	loss2	33
913	1005	4.134	0	10	-20	HC	loss	loss2	34
913	1005	2.291	1	6	-20	HC	loss	loss2	35
913	1005	1.449	0	10	-5	HC	loss	loss2	36
913	1005	1.089	0	10	-10	HC	loss	loss2	37
913	1005	1.32	1	2	-5	HC	loss	loss2	38
913	1005	2.326	1	2	-20	HC	loss	loss2	39
913	1005	1.178	1	6	-5	HC	loss	loss2	40
913	1005	2.589	1	6	-25	HC	loss	loss2	41
913	1005	1.319	1	2	-15	HC	loss	loss2	42
913	1005	1.405	1	2	-10	HC	loss	loss2	43
913	1005	1.862	1	4	-20	HC	loss	loss2	44
913	1005	1.806	1	2	-25	HC	loss	loss2	45
913	1005	1.407	0	10	-15	HC	loss	loss2	46
913	1005	1.025	1	4	-15	HC	loss	loss2	47
913	1005	3.225	1	6	-15	HC	loss	loss2	48
913	1005	1.074	0	8	-5	HC	loss	loss2	49
913	1005	1.057	1	4	-5	HC	loss	loss2	50
917	1006	2.056	1	6	-5	HC	loss	loss2	1
917	1006	1.016	1	8	-20	HC	loss	loss2	2
917	1006	1.049	1	4	-20	HC	loss	loss2	3
917	1006	1.033	1	4	-10	HC	loss	loss2	4
917	1006	1.098	1	10	-20	HC	loss	loss2	5
917	1006	0.792	1	8	-15	HC	loss	loss2	6
917	1006	0.875	1	6	-15	HC	loss	loss2	7
917	1006	1.585	0	10	-5	HC	loss	loss2	8
917	1006	0.884	1	4	-15	HC	loss	loss2	9
917	1006	1.467	1	4	-25	HC	loss	loss2	10
917	1006	0.754	1	2	-15	HC	loss	loss2	11
917	1006	0.838	1	2	-10	HC	loss	loss2	12
917	1006	1.35	1	10	-15	HC	loss	loss2	13
917	1006	0.882	1	6	-25	HC	loss	loss2	14
917	1006	1.473	0	10	-10	HC	loss	loss2	15
917	1006	1.552	1	8	-5	HC	loss	loss2	16
917	1006	0.924	1	6	-20	HC	loss	loss2	17
917	1006	0.992	1	2	-20	HC	loss	loss2	18
917	1006	1.211	1	8	-10	HC	loss	loss2	19
917	1006	0.844	1	4	-5	HC	loss	loss2	20
917	1006	1.164	1	2	-25	HC	loss	loss2	21
917	1006	1.304	1	10	-25	HC	loss	loss2	22
917	1006	1.093	1	2	-5	HC	loss	loss2	23
917	1006	1.283	1	6	-10	HC	loss	loss2	24
917	1006	0.938	1	8	-25	HC	loss	loss2	25
917	1006	2.825	1	6	-15	HC	loss	loss2	26
917	1006	2.274	1	6	-10	HC	loss	loss2	27
917	1006	0.777	1	2	-15	HC	loss	loss2	28
917	1006	0.891	1	6	-25	HC	loss	loss2	29
917	1006	1.385	0	10	-5	HC	loss	loss2	30
917	1006	1.132	0	8	-5	HC	loss	loss2	31
917	1006	0.793	1	10	-25	HC	loss	loss2	32
917	1006	0.955	1	2	-5	HC	loss	loss2	33
917	1006	0.999	1	4	-20	HC	loss	loss2	34
917	1006	1.185	1	6	-5	HC	loss	loss2	35
917	1006	1.307	1	4	-10	HC	loss	loss2	36
917	1006	1.385	1	4	-5	HC	loss	loss2	37
917	1006	0.908	1	4	-15	HC	loss	loss2	38
917	1006	1.009	1	6	-20	HC	loss	loss2	39
917	1006	1.499	1	10	-20	HC	loss	loss2	40
917	1006	0.929	1	8	-25	HC	loss	loss2	41
917	1006	3.781	0	8	-10	HC	loss	loss2	42
917	1006	1.04	1	2	-25	HC	loss	loss2	43
917	1006	1.632	0	10	-10	HC	loss	loss2	44
917	1006	2.456	1	10	-15	HC	loss	loss2	45
917	1006	0.984	1	8	-20	HC	loss	loss2	46
917	1006	0.946	1	4	-25	HC	loss	loss2	47
917	1006	1.286	1	2	-10	HC	loss	loss2	48
917	1006	1.589	1	2	-20	HC	loss	loss2	49
917	1006	2.455	1	8	-15	HC	loss	loss2	50
918	1007	2.508	1	4	-15	HC	loss	loss2	1
918	1007	1.246	1	2	-10	HC	loss	loss2	2
918	1007	1.147	1	4	-25	HC	loss	loss2	3
918	1007	1.772	1	6	-25	HC	loss	loss2	4
918	1007	1.236	1	6	-5	HC	loss	loss2	5
918	1007	1.041	1	2	-25	HC	loss	loss2	6
918	1007	1.15	1	6	-10	HC	loss	loss2	7
918	1007	1.367	1	6	-20	HC	loss	loss2	8
918	1007	1.351	0	10	-10	HC	loss	loss2	9
918	1007	1.375	0	10	-25	HC	loss	loss2	10
918	1007	1.087	1	4	-20	HC	loss	loss2	11
918	1007	1.146	1	2	-5	HC	loss	loss2	12
918	1007	1.251	1	4	-10	HC	loss	loss2	13
918	1007	1.256	1	8	-20	HC	loss	loss2	14
918	1007	0.811	1	2	-20	HC	loss	loss2	15
918	1007	1.361	0	8	-5	HC	loss	loss2	16
918	1007	5.257	0	10	-20	HC	loss	loss2	17
918	1007	1.831	1	8	-25	HC	loss	loss2	18
918	1007	2.684	0	10	-15	HC	loss	loss2	19
918	1007	2.128	0	8	-10	HC	loss	loss2	20
918	1007	0.865	0	10	-5	HC	loss	loss2	21
918	1007	1.9	1	6	-15	HC	loss	loss2	22
918	1007	1.367	1	4	-5	HC	loss	loss2	23
918	1007	1.127	1	2	-15	HC	loss	loss2	24
918	1007	1.593	0	8	-15	HC	loss	loss2	25
918	1007	2.765	0	10	-15	HC	loss	loss2	26
918	1007	1.564	1	2	-5	HC	loss	loss2	27
918	1007	3.58	0	10	-5	HC	loss	loss2	28
918	1007	1.164	0	10	-10	HC	loss	loss2	29
918	1007	1.476	1	2	-25	HC	loss	loss2	30
918	1007	2.535	0	10	-20	HC	loss	loss2	31
918	1007	1.641	0	6	-10	HC	loss	loss2	32
918	1007	1.102	1	4	-15	HC	loss	loss2	33
918	1007	1.144	1	2	-10	HC	loss	loss2	34
918	1007	1.793	0	4	-5	HC	loss	loss2	35
918	1007	1.176	1	2	-15	HC	loss	loss2	36
918	1007	2.391	0	8	-25	HC	loss	loss2	37
918	1007	1.902	0	4	-10	HC	loss	loss2	38
918	1007	2.145	1	4	-25	HC	loss	loss2	39
918	1007	1.642	1	6	-25	HC	loss	loss2	40
918	1007	2.934	0	10	-25	HC	loss	loss2	41
918	1007	1.855	1	8	-20	HC	loss	loss2	42
918	1007	1.22	1	6	-20	HC	loss	loss2	43
918	1007	1.018	1	6	-15	HC	loss	loss2	44
918	1007	1.408	0	8	-10	HC	loss	loss2	45
918	1007	1.55	1	2	-20	HC	loss	loss2	46
918	1007	2.351	1	4	-20	HC	loss	loss2	47
918	1007	2.672	0	8	-15	HC	loss	loss2	48
918	1007	2.876	0	6	-5	HC	loss	loss2	49
918	1007	1.416	0	8	-5	HC	loss	loss2	50
921	1008	1.599	1	2	-25	HC	loss	loss2	1
921	1008	2.846	1	10	-10	HC	loss	loss2	2
921	1008	0.907	1	6	-15	HC	loss	loss2	3
921	1008	1.181	1	10	-25	HC	loss	loss2	4
921	1008	1.404	1	8	-15	HC	loss	loss2	5
921	1008	1.659	0	10	-5	HC	loss	loss2	6
921	1008	5.623	1	10	-20	HC	loss	loss2	7
921	1008	1.933	1	4	-15	HC	loss	loss2	8
921	1008	1.159	1	4	-25	HC	loss	loss2	9
921	1008	1.055	1	2	-15	HC	loss	loss2	10
921	1008	0.764	1	6	-10	HC	loss	loss2	11
921	1008	5.179	1	4	-10	HC	loss	loss2	12
921	1008	1.66	1	4	-20	HC	loss	loss2	13
921	1008	1.656	1	2	-20	HC	loss	loss2	14
921	1008	3.885	1	8	-10	HC	loss	loss2	15
921	1008	0.945	1	2	-10	HC	loss	loss2	16
921	1008	1.082	1	6	-20	HC	loss	loss2	17
921	1008	2.461	1	6	-5	HC	loss	loss2	18
921	1008	5.346	1	8	-5	HC	loss	loss2	19
921	1008	1.084	1	6	-25	HC	loss	loss2	20
921	1008	1.967	1	8	-25	HC	loss	loss2	21
921	1008	2.791	1	2	-5	HC	loss	loss2	22
921	1008	2.454	1	4	-5	HC	loss	loss2	23
921	1008	1.34	1	10	-15	HC	loss	loss2	24
921	1008	1.077	1	8	-20	HC	loss	loss2	25
921	1008	3.435	0	8	-5	HC	loss	loss2	26
921	1008	1.809	1	8	-20	HC	loss	loss2	27
921	1008	2.671	1	6	-5	HC	loss	loss2	28
921	1008	2.98	1	4	-5	HC	loss	loss2	29
921	1008	2.635	0	10	-5	HC	loss	loss2	30
921	1008	2.281	1	6	-15	HC	loss	loss2	31
921	1008	2.757	1	10	-20	HC	loss	loss2	32
921	1008	0.629	1	2	-25	HC	loss	loss2	33
921	1008	2.186	1	2	-20	HC	loss	loss2	34
921	1008	4.354	1	6	-20	HC	loss	loss2	35
921	1008	2.124	1	8	-15	HC	loss	loss2	36
921	1008	0.437	1	6	-25	HC	loss	loss2	37
921	1008	0.594	1	8	-10	HC	loss	loss2	38
921	1008	0.409	1	10	-15	HC	loss	loss2	39
921	1008	1.11	1	2	-10	HC	loss	loss2	40
921	1008	2.216	1	6	-10	HC	loss	loss2	41
921	1008	1.911	1	4	-20	HC	loss	loss2	42
921	1008	1.161	1	4	-25	HC	loss	loss2	43
921	1008	1.233	1	10	-10	HC	loss	loss2	44
921	1008	0.758	1	4	-10	HC	loss	loss2	45
921	1008	0.87	1	4	-15	HC	loss	loss2	46
921	1008	1.53	1	8	-25	HC	loss	loss2	47
921	1008	2.86	1	2	-15	HC	loss	loss2	48
921	1008	1.624	1	10	-25	HC	loss	loss2	49
921	1008	1.469	1	2	-5	HC	loss	loss2	50
922	1009	3.004	1	2	-25	HC	loss	loss2	1
922	1009	1.827	1	8	-25	HC	loss	loss2	2
922	1009	1.6	1	6	-10	HC	loss	loss2	3
922	1009	1.951	0	10	-15	HC	loss	loss2	4
922	1009	1.808	0	10	-5	HC	loss	loss2	5
922	1009	1.942	1	8	-20	HC	loss	loss2	6
922	1009	1.575	1	10	-25	HC	loss	loss2	7
922	1009	1.263	1	2	-10	HC	loss	loss2	8
922	1009	1.371	1	4	-10	HC	loss	loss2	9
922	1009	1.563	1	6	-20	HC	loss	loss2	10
922	1009	1.427	1	6	-25	HC	loss	loss2	11
922	1009	1.368	0	8	-5	HC	loss	loss2	12
922	1009	1.384	1	10	-20	HC	loss	loss2	13
922	1009	1.423	1	8	-15	HC	loss	loss2	14
922	1009	1.293	1	6	-5	HC	loss	loss2	15
922	1009	2.552	1	4	-5	HC	loss	loss2	16
922	1009	1.825	1	6	-15	HC	loss	loss2	17
922	1009	1.815	1	2	-15	HC	loss	loss2	18
922	1009	1.549	1	4	-25	HC	loss	loss2	19
922	1009	1.55	1	4	-20	HC	loss	loss2	20
922	1009	1.694	0	8	-10	HC	loss	loss2	21
922	1009	1.409	1	4	-15	HC	loss	loss2	22
922	1009	1.567	0	10	-10	HC	loss	loss2	23
922	1009	1.55	1	2	-20	HC	loss	loss2	24
922	1009	2.127	1	2	-5	HC	loss	loss2	25
922	1009	2.37	1	10	-20	HC	loss	loss2	26
922	1009	1.323	0	10	-15	HC	loss	loss2	27
922	1009	1.684	1	4	-25	HC	loss	loss2	28
922	1009	1.432	1	2	-20	HC	loss	loss2	29
922	1009	1.381	1	6	-20	HC	loss	loss2	30
922	1009	1.301	1	4	-10	HC	loss	loss2	31
922	1009	1.823	0	10	-5	HC	loss	loss2	32
922	1009	1.893	1	4	-15	HC	loss	loss2	33
922	1009	1.184	1	2	-25	HC	loss	loss2	34
922	1009	1.503	0	10	-25	HC	loss	loss2	35
922	1009	2.402	1	8	-25	HC	loss	loss2	36
922	1009	1.257	1	4	-20	HC	loss	loss2	37
922	1009	1.565	1	6	-15	HC	loss	loss2	38
922	1009	2.502	1	6	-25	HC	loss	loss2	39
922	1009	1.465	0	8	-5	HC	loss	loss2	40
922	1009	1.636	1	2	-10	HC	loss	loss2	41
922	1009	1.914	1	2	-5	HC	loss	loss2	42
922	1009	1.812	0	10	-10	HC	loss	loss2	43
922	1009	1.474	1	4	-5	HC	loss	loss2	44
922	1009	1.566	1	6	-10	HC	loss	loss2	45
922	1009	1.302	0	8	-10	HC	loss	loss2	46
922	1009	2.792	1	8	-15	HC	loss	loss2	47
922	1009	3.024	0	6	-5	HC	loss	loss2	48
922	1009	1.55	1	8	-20	HC	loss	loss2	49
922	1009	1.35	1	2	-15	HC	loss	loss2	50
924	1010	2.563	0	6	-5	HC	loss	loss2	1
924	1010	3.243	1	4	-15	HC	loss	loss2	2
924	1010	3.488	0	8	-5	HC	loss	loss2	3
924	1010	4.732	1	6	-20	HC	loss	loss2	4
924	1010	2.406	1	10	-25	HC	loss	loss2	5
924	1010	1.974	1	2	-15	HC	loss	loss2	6
924	1010	2.246	1	2	-25	HC	loss	loss2	7
924	1010	2.075	1	4	-10	HC	loss	loss2	8
924	1010	1.646	1	2	-5	HC	loss	loss2	9
924	1010	1.691	1	4	-25	HC	loss	loss2	10
924	1010	2.502	1	10	-10	HC	loss	loss2	11
924	1010	2.465	1	6	-10	HC	loss	loss2	12
924	1010	2.661	1	8	-25	HC	loss	loss2	13
924	1010	1.818	1	6	-15	HC	loss	loss2	14
924	1010	2.528	1	2	-20	HC	loss	loss2	15
924	1010	2.938	1	8	-15	HC	loss	loss2	16
924	1010	2.468	1	8	-20	HC	loss	loss2	17
924	1010	3.56	1	6	-25	HC	loss	loss2	18
924	1010	1.857	1	4	-20	HC	loss	loss2	19
924	1010	2.014	1	10	-20	HC	loss	loss2	20
924	1010	2.331	0	10	-5	HC	loss	loss2	21
924	1010	3.661	1	10	-15	HC	loss	loss2	22
924	1010	1.809	1	2	-10	HC	loss	loss2	23
924	1010	1.72	1	4	-5	HC	loss	loss2	24
924	1010	3.714	1	8	-10	HC	loss	loss2	25
924	1010	2.51	1	8	-20	HC	loss	loss2	26
924	1010	1.704	1	6	-20	HC	loss	loss2	27
924	1010	2.787	1	8	-10	HC	loss	loss2	28
924	1010	1.747	1	2	-20	HC	loss	loss2	29
924	1010	0.692	1	2	-10	HC	loss	loss2	30
924	1010	1.806	1	8	-15	HC	loss	loss2	31
924	1010	2.101	1	8	-25	HC	loss	loss2	32
924	1010	1.967	1	4	-5	HC	loss	loss2	33
924	1010	2.24	1	4	-15	HC	loss	loss2	34
924	1010	3.205	0	8	-5	HC	loss	loss2	35
924	1010	2.356	1	4	-25	HC	loss	loss2	36
924	1010	1.741	0	10	-5	HC	loss	loss2	37
924	1010	2.623	1	2	-5	HC	loss	loss2	38
924	1010	1.989	1	6	-5	HC	loss	loss2	39
924	1010	4.069	1	10	-10	HC	loss	loss2	40
924	1010	2.498	1	6	-10	HC	loss	loss2	41
924	1010	2.429	1	10	-20	HC	loss	loss2	42
924	1010	1.522	1	6	-15	HC	loss	loss2	43
924	1010	2.652	1	6	-25	HC	loss	loss2	44
924	1010	2.065	1	2	-15	HC	loss	loss2	45
924	1010	2.253	1	2	-25	HC	loss	loss2	46
924	1010	2.082	1	4	-10	HC	loss	loss2	47
924	1010	2.51	1	4	-20	HC	loss	loss2	48
924	1010	2.848	1	10	-15	HC	loss	loss2	49
924	1010	5.429	1	10	-25	HC	loss	loss2	50
926	1011	4.408	1	10	-20	HC	loss	loss2	1
926	1011	1.551	1	4	-25	HC	loss	loss2	2
926	1011	2.288	1	10	-10	HC	loss	loss2	3
926	1011	1.595	1	6	-5	HC	loss	loss2	4
926	1011	2.762	1	10	-25	HC	loss	loss2	5
926	1011	2.451	1	8	-10	HC	loss	loss2	6
926	1011	1.072	1	8	-20	HC	loss	loss2	7
926	1011	0.972	1	6	-20	HC	loss	loss2	8
926	1011	1.468	1	2	-15	HC	loss	loss2	9
926	1011	0.84	1	8	-5	HC	loss	loss2	10
926	1011	2.052	1	10	-15	HC	loss	loss2	11
926	1011	0.945	1	2	-10	HC	loss	loss2	12
926	1011	0.433	1	8	-15	HC	loss	loss2	13
926	1011	1.246	1	10	-5	HC	loss	loss2	14
926	1011	1.131	1	6	-15	HC	loss	loss2	15
926	1011	0.404	1	4	-15	HC	loss	loss2	16
926	1011	2.107	1	2	-5	HC	loss	loss2	17
926	1011	1.35	1	8	-25	HC	loss	loss2	18
926	1011	1.51	1	2	-25	HC	loss	loss2	19
926	1011	2.945	1	6	-25	HC	loss	loss2	20
926	1011	1.802	1	6	-10	HC	loss	loss2	21
926	1011	1.297	1	4	-20	HC	loss	loss2	22
926	1011	1.763	1	4	-10	HC	loss	loss2	23
926	1011	1.66	1	2	-20	HC	loss	loss2	24
926	1011	4.216	1	4	-5	HC	loss	loss2	25
926	1011	3.525	1	10	-10	HC	loss	loss2	26
926	1011	0.967	1	2	-10	HC	loss	loss2	27
926	1011	1.407	1	10	-5	HC	loss	loss2	28
926	1011	1.07	1	10	-25	HC	loss	loss2	29
926	1011	0.714	1	2	-15	HC	loss	loss2	30
926	1011	0.98	1	6	-25	HC	loss	loss2	31
926	1011	1.667	1	4	-20	HC	loss	loss2	32
926	1011	0.871	1	2	-25	HC	loss	loss2	33
926	1011	1.587	1	2	-5	HC	loss	loss2	34
926	1011	2.202	1	4	-5	HC	loss	loss2	35
926	1011	0.993	1	8	-5	HC	loss	loss2	36
926	1011	1.039	1	10	-20	HC	loss	loss2	37
926	1011	1.86	1	10	-15	HC	loss	loss2	38
926	1011	1.369	1	4	-10	HC	loss	loss2	39
926	1011	1.633	1	6	-10	HC	loss	loss2	40
926	1011	1.382	1	8	-10	HC	loss	loss2	41
926	1011	1.429	1	8	-20	HC	loss	loss2	42
926	1011	2.691	1	6	-15	HC	loss	loss2	43
926	1011	0.99	1	2	-20	HC	loss	loss2	44
926	1011	1.261	1	4	-15	HC	loss	loss2	45
926	1011	1.737	1	6	-5	HC	loss	loss2	46
926	1011	1.043	1	8	-15	HC	loss	loss2	47
926	1011	1.039	1	8	-25	HC	loss	loss2	48
926	1011	1.325	1	4	-25	HC	loss	loss2	49
926	1011	1.102	1	6	-20	HC	loss	loss2	50
929	1012	2.121	1	6	-10	HC	loss	loss2	1
929	1012	1.323	1	2	-15	HC	loss	loss2	2
929	1012	0.589	1	2	-10	HC	loss	loss2	3
929	1012	2.38	1	10	-15	HC	loss	loss2	4
929	1012	1.004	1	10	-25	HC	loss	loss2	5
929	1012	1.003	1	2	-20	HC	loss	loss2	6
929	1012	0.921	1	4	-15	HC	loss	loss2	7
929	1012	1.403	1	6	-15	HC	loss	loss2	8
929	1012	0.569	1	4	-5	HC	loss	loss2	9
929	1012	0.993	1	6	-25	HC	loss	loss2	10
929	1012	3.031	1	10	-20	HC	loss	loss2	11
929	1012	1.077	1	8	-15	HC	loss	loss2	12
929	1012	0.84	1	2	-25	HC	loss	loss2	13
929	1012	0.55	1	4	-25	HC	loss	loss2	14
929	1012	0.726	1	8	-10	HC	loss	loss2	15
929	1012	0.423	1	8	-20	HC	loss	loss2	16
929	1012	0.629	1	10	-5	HC	loss	loss2	17
929	1012	0.682	1	8	-5	HC	loss	loss2	18
929	1012	0.581	1	6	-5	HC	loss	loss2	19
929	1012	0.428	1	4	-10	HC	loss	loss2	20
929	1012	0.481	1	4	-20	HC	loss	loss2	21
929	1012	2.229	1	10	-10	HC	loss	loss2	22
929	1012	0.354	1	8	-25	HC	loss	loss2	23
929	1012	1.251	1	2	-5	HC	loss	loss2	24
929	1012	1.231	1	6	-20	HC	loss	loss2	25
929	1012	1.239	1	4	-5	HC	loss	loss2	26
929	1012	0.556	1	6	-20	HC	loss	loss2	27
929	1012	1.685	1	6	-25	HC	loss	loss2	28
929	1012	0.792	1	8	-20	HC	loss	loss2	29
929	1012	0.815	1	4	-15	HC	loss	loss2	30
929	1012	0.588	1	6	-15	HC	loss	loss2	31
929	1012	0.428	1	2	-10	HC	loss	loss2	32
929	1012	0.577	1	2	-15	HC	loss	loss2	33
929	1012	0.56	1	4	-25	HC	loss	loss2	34
929	1012	1.431	1	4	-20	HC	loss	loss2	35
929	1012	0.637	1	8	-5	HC	loss	loss2	36
929	1012	1.985	1	10	-5	HC	loss	loss2	37
929	1012	0.553	1	8	-15	HC	loss	loss2	38
929	1012	0.849	1	8	-25	HC	loss	loss2	39
929	1012	3.374	1	10	-15	HC	loss	loss2	40
929	1012	1.678	1	2	-5	HC	loss	loss2	41
929	1012	0.937	1	6	-5	HC	loss	loss2	42
929	1012	0.65	1	2	-20	HC	loss	loss2	43
929	1012	0.591	1	4	-10	HC	loss	loss2	44
929	1012	1.15	1	2	-25	HC	loss	loss2	45
929	1012	3.151	1	10	-25	HC	loss	loss2	46
929	1012	0.768	1	8	-10	HC	loss	loss2	47
929	1012	0.68	1	6	-10	HC	loss	loss2	48
929	1012	2.731	1	10	-10	HC	loss	loss2	49
929	1012	2.061	1	10	-20	HC	loss	loss2	50
930	1013	2.655	1	10	-10	HC	loss	loss2	1
930	1013	0.628	1	4	-5	HC	loss	loss2	2
930	1013	0.393	1	10	-25	HC	loss	loss2	3
930	1013	0.464	1	10	-15	HC	loss	loss2	4
930	1013	0.46	1	2	-15	HC	loss	loss2	5
930	1013	0.679	1	2	-25	HC	loss	loss2	6
930	1013	0.77	1	6	-25	HC	loss	loss2	7
930	1013	0.218	1	8	-25	HC	loss	loss2	8
930	1013	0.432	1	10	-5	HC	loss	loss2	9
930	1013	0.445	1	10	-20	HC	loss	loss2	10
930	1013	0.513	1	4	-15	HC	loss	loss2	11
930	1013	0.339	1	8	-5	HC	loss	loss2	12
930	1013	0.46	1	4	-25	HC	loss	loss2	13
930	1013	0.456	1	4	-20	HC	loss	loss2	14
930	1013	0.316	1	6	-10	HC	loss	loss2	15
930	1013	0.414	1	2	-20	HC	loss	loss2	16
930	1013	0.676	1	6	-15	HC	loss	loss2	17
930	1013	1.559	1	8	-20	HC	loss	loss2	18
930	1013	1.255	1	8	-10	HC	loss	loss2	19
930	1013	1.212	1	4	-10	HC	loss	loss2	20
930	1013	0.498	1	2	-10	HC	loss	loss2	21
930	1013	1.02	1	6	-20	HC	loss	loss2	22
930	1013	0.913	1	2	-5	HC	loss	loss2	23
930	1013	1.379	1	6	-5	HC	loss	loss2	24
930	1013	0.306	1	8	-15	HC	loss	loss2	25
930	1013	0.801	1	10	-5	HC	loss	loss2	26
930	1013	0.592	1	10	-25	HC	loss	loss2	27
930	1013	0.262	1	10	-15	HC	loss	loss2	28
930	1013	0.378	1	8	-25	HC	loss	loss2	29
930	1013	0.489	1	4	-15	HC	loss	loss2	30
930	1013	0.844	1	6	-25	HC	loss	loss2	31
930	1013	0.72	1	8	-15	HC	loss	loss2	32
930	1013	1.082	1	4	-10	HC	loss	loss2	33
930	1013	0.517	1	2	-25	HC	loss	loss2	34
930	1013	0.519	1	4	-20	HC	loss	loss2	35
930	1013	0.513	1	2	-10	HC	loss	loss2	36
930	1013	0.563	1	10	-20	HC	loss	loss2	37
930	1013	1.234	1	8	-20	HC	loss	loss2	38
930	1013	1.176	1	6	-10	HC	loss	loss2	39
930	1013	1.055	1	6	-5	HC	loss	loss2	40
930	1013	0.316	1	2	-5	HC	loss	loss2	41
930	1013	0.693	1	4	-25	HC	loss	loss2	42
930	1013	0.288	1	6	-15	HC	loss	loss2	43
930	1013	0.955	1	8	-10	HC	loss	loss2	44
930	1013	0.747	1	2	-20	HC	loss	loss2	45
930	1013	0.492	1	2	-15	HC	loss	loss2	46
930	1013	0.422	1	10	-10	HC	loss	loss2	47
930	1013	1.268	1	4	-5	HC	loss	loss2	48
930	1013	0.512	1	6	-20	HC	loss	loss2	49
930	1013	3.402	1	8	-5	HC	loss	loss2	50
932	1014	0.625	1	4	-25	HC	loss	loss2	1
932	1014	0.33	1	2	-25	HC	loss	loss2	2
932	1014	0.646	1	6	-5	HC	loss	loss2	3
932	1014	0.414	1	4	-5	HC	loss	loss2	4
932	1014	0.432	1	8	-25	HC	loss	loss2	5
932	1014	0.825	1	10	-15	HC	loss	loss2	6
932	1014	0.905	1	8	-15	HC	loss	loss2	7
932	1014	0.504	1	8	-10	HC	loss	loss2	8
932	1014	0.51	1	2	-20	HC	loss	loss2	9
932	1014	0.475	1	6	-25	HC	loss	loss2	10
932	1014	0.306	1	4	-20	HC	loss	loss2	11
932	1014	0.376	1	4	-15	HC	loss	loss2	12
932	1014	0.803	1	2	-15	HC	loss	loss2	13
932	1014	0.717	1	2	-5	HC	loss	loss2	14
932	1014	0.882	1	2	-10	HC	loss	loss2	15
932	1014	1.905	0	10	-25	HC	loss	loss2	16
932	1014	0.959	0	6	-10	HC	loss	loss2	17
932	1014	0.363	0	10	-20	HC	loss	loss2	18
932	1014	1.934	1	6	-15	HC	loss	loss2	19
932	1014	0.307	1	6	-20	HC	loss	loss2	20
932	1014	1.896	1	10	-10	HC	loss	loss2	21
932	1014	1.039	0	4	-10	HC	loss	loss2	22
932	1014	1.023	0	10	-5	HC	loss	loss2	23
932	1014	1.634	0	8	-20	HC	loss	loss2	24
932	1014	0.314	1	8	-5	HC	loss	loss2	25
932	1014	0.302	1	4	-20	HC	loss	loss2	26
932	1014	0.348	1	2	-15	HC	loss	loss2	27
932	1014	1.864	1	10	-20	HC	loss	loss2	28
932	1014	0.447	1	6	-15	HC	loss	loss2	29
932	1014	0.288	1	10	-5	HC	loss	loss2	30
932	1014	0.43	1	4	-10	HC	loss	loss2	31
932	1014	0.591	1	4	-5	HC	loss	loss2	32
932	1014	0.433	1	4	-25	HC	loss	loss2	33
932	1014	0.986	1	6	-5	HC	loss	loss2	34
932	1014	1.421	1	2	-5	HC	loss	loss2	35
932	1014	0.342	1	8	-25	HC	loss	loss2	36
932	1014	0.282	1	8	-10	HC	loss	loss2	37
932	1014	0.297	0	2	-25	HC	loss	loss2	38
932	1014	1.055	1	8	-20	HC	loss	loss2	39
932	1014	1.119	1	10	-10	HC	loss	loss2	40
932	1014	0.341	1	10	-25	HC	loss	loss2	41
932	1014	0.425	0	6	-25	HC	loss	loss2	42
932	1014	1.018	0	2	-20	HC	loss	loss2	43
932	1014	0.891	1	8	-5	HC	loss	loss2	44
932	1014	0.465	1	6	-10	HC	loss	loss2	45
932	1014	0.305	1	4	-15	HC	loss	loss2	46
932	1014	0.438	1	6	-20	HC	loss	loss2	47
932	1014	2.175	1	2	-10	HC	loss	loss2	48
932	1014	0.426	0	8	-15	HC	loss	loss2	49
932	1014	0.354	1	10	-15	HC	loss	loss2	50
933	1015	3.337	0	10	-5	HC	loss	loss2	1
933	1015	1.829	1	8	-20	HC	loss	loss2	2
933	1015	1.878	0	8	-5	HC	loss	loss2	3
933	1015	1.517	1	6	-5	HC	loss	loss2	4
933	1015	6.922	1	10	-20	HC	loss	loss2	5
933	1015	1.559	1	6	-10	HC	loss	loss2	6
933	1015	1.139	1	6	-20	HC	loss	loss2	7
933	1015	1.143	1	4	-5	HC	loss	loss2	8
933	1015	1.147	1	6	-25	HC	loss	loss2	9
933	1015	0.967	1	4	-15	HC	loss	loss2	10
933	1015	1.011	1	2	-20	HC	loss	loss2	11
933	1015	1.076	1	2	-15	HC	loss	loss2	12
933	1015	1.059	1	8	-10	HC	loss	loss2	13
933	1015	0.938	1	2	-10	HC	loss	loss2	14
933	1015	2.007	1	8	-25	HC	loss	loss2	15
933	1015	1.833	1	4	-25	HC	loss	loss2	16
933	1015	1.929	0	10	-15	HC	loss	loss2	17
933	1015	3.158	1	10	-10	HC	loss	loss2	18
933	1015	8.074	1	6	-15	HC	loss	loss2	19
933	1015	1.897	0	8	-15	HC	loss	loss2	20
933	1015	2.199	1	2	-5	HC	loss	loss2	21
933	1015	1.209	1	4	-20	HC	loss	loss2	22
933	1015	1.17	1	2	-25	HC	loss	loss2	23
933	1015	1.15	1	4	-10	HC	loss	loss2	24
933	1015	5.465	1	10	-25	HC	loss	loss2	25
933	1015	1.198	1	2	-5	HC	loss	loss2	26
933	1015	1.112	1	6	-15	HC	loss	loss2	27
933	1015	1.029	1	4	-15	HC	loss	loss2	28
933	1015	0.902	0	8	-20	HC	loss	loss2	29
933	1015	1.084	0	10	-5	HC	loss	loss2	30
933	1015	1.491	1	4	-10	HC	loss	loss2	31
933	1015	2.969	1	10	-20	HC	loss	loss2	32
933	1015	1.181	1	2	-20	HC	loss	loss2	33
933	1015	1.479	0	8	-10	HC	loss	loss2	34
933	1015	0.998	1	2	-10	HC	loss	loss2	35
933	1015	1.456	0	10	-15	HC	loss	loss2	36
933	1015	1.536	1	6	-5	HC	loss	loss2	37
933	1015	1.285	1	6	-20	HC	loss	loss2	38
933	1015	4.612	1	10	-25	HC	loss	loss2	39
933	1015	1.109	1	2	-15	HC	loss	loss2	40
933	1015	1.971	1	4	-5	HC	loss	loss2	41
933	1015	2.142	0	10	-10	HC	loss	loss2	42
933	1015	1.978	1	4	-20	HC	loss	loss2	43
933	1015	3.421	1	8	-15	HC	loss	loss2	44
933	1015	1.343	1	8	-25	HC	loss	loss2	45
933	1015	1.307	0	8	-5	HC	loss	loss2	46
933	1015	1.266	1	4	-25	HC	loss	loss2	47
933	1015	1.192	1	2	-25	HC	loss	loss2	48
933	1015	1.563	1	6	-25	HC	loss	loss2	49
933	1015	1.638	1	6	-10	HC	loss	loss2	50
934	1016	10.364	1	8	-15	HC	loss	loss2	1
934	1016	1.104	1	8	-10	HC	loss	loss2	2
934	1016	0.178	1	4	-15	HC	loss	loss2	3
934	1016	0.265	1	4	-5	HC	loss	loss2	4
934	1016	0.484	1	6	-15	HC	loss	loss2	5
934	1016	0.519	1	2	-15	HC	loss	loss2	6
934	1016	0.017	1	2	-5	HC	loss	loss2	7
934	1016	0.694	1	4	-25	HC	loss	loss2	8
934	1016	0.977	1	10	-10	HC	loss	loss2	9
934	1016	0.424	1	4	-10	HC	loss	loss2	10
934	1016	2.358	1	6	-25	HC	loss	loss2	11
934	1016	0.534	1	8	-5	HC	loss	loss2	12
934	1016	0.351	1	6	-20	HC	loss	loss2	13
934	1016	1.319	1	10	-5	HC	loss	loss2	14
934	1016	0.145	1	8	-20	HC	loss	loss2	15
934	1016	0.242	1	10	-25	HC	loss	loss2	16
934	1016	1.214	1	2	-25	HC	loss	loss2	17
934	1016	1.204	1	2	-20	HC	loss	loss2	18
934	1016	0.379	1	8	-25	HC	loss	loss2	19
934	1016	1.018	1	10	-20	HC	loss	loss2	20
934	1016	0.24	1	10	-15	HC	loss	loss2	21
934	1016	0.037	1	6	-5	HC	loss	loss2	22
934	1016	0.938	1	6	-10	HC	loss	loss2	23
934	1016	0.363	1	4	-20	HC	loss	loss2	24
934	1016	0.115	1	2	-10	HC	loss	loss2	25
934	1016	0.932	1	2	-20	HC	loss	loss2	26
934	1016	0.366	1	4	-15	HC	loss	loss2	27
934	1016	0.797	1	6	-15	HC	loss	loss2	28
934	1016	0.444	1	4	-10	HC	loss	loss2	29
934	1016	0.848	1	4	-25	HC	loss	loss2	30
934	1016	1.221	1	4	-5	HC	loss	loss2	31
934	1016	0.835	1	10	-10	HC	loss	loss2	32
934	1016	0.304	1	4	-20	HC	loss	loss2	33
934	1016	1.074	1	6	-5	HC	loss	loss2	34
934	1016	0.142	1	10	-5	HC	loss	loss2	35
934	1016	0.973	1	10	-15	HC	loss	loss2	36
934	1016	0.645	1	2	-25	HC	loss	loss2	37
934	1016	0.506	1	8	-15	HC	loss	loss2	38
934	1016	0.708	1	2	-10	HC	loss	loss2	39
934	1016	2.846	1	8	-25	HC	loss	loss2	40
934	1016	0.291	1	6	-10	HC	loss	loss2	41
934	1016	0.519	1	8	-10	HC	loss	loss2	42
934	1016	4.623	1	2	-5	HC	loss	loss2	43
934	1016	1.806	1	6	-20	HC	loss	loss2	44
934	1016	0.645	1	10	-20	HC	loss	loss2	45
934	1016	1.049	1	8	-5	HC	loss	loss2	46
934	1016	1.43	1	2	-15	HC	loss	loss2	47
934	1016	29.483	1	6	-25	HC	loss	loss2	48
934	1016	36.575	1	10	-25	HC	loss	loss2	49
934	1016	0.227	1	8	-20	HC	loss	loss2	50
939	1017	2.716	1	10	-10	HC	loss	loss2	1
939	1017	0.927	1	2	-20	HC	loss	loss2	2
939	1017	0.952	1	6	-20	HC	loss	loss2	3
939	1017	3.528	1	10	-20	HC	loss	loss2	4
939	1017	1.795	1	10	-15	HC	loss	loss2	5
939	1017	1.376	1	6	-10	HC	loss	loss2	6
939	1017	1.824	1	4	-10	HC	loss	loss2	7
939	1017	0.925	1	2	-25	HC	loss	loss2	8
939	1017	1.871	1	4	-5	HC	loss	loss2	9
939	1017	2.299	1	8	-15	HC	loss	loss2	10
939	1017	4.814	1	6	-15	HC	loss	loss2	11
939	1017	1.309	1	4	-15	HC	loss	loss2	12
939	1017	1.767	1	2	-10	HC	loss	loss2	13
939	1017	0.639	1	6	-5	HC	loss	loss2	14
939	1017	1.012	1	8	-10	HC	loss	loss2	15
939	1017	1.466	1	10	-5	HC	loss	loss2	16
939	1017	1.11	1	2	-15	HC	loss	loss2	17
939	1017	1.408	1	8	-25	HC	loss	loss2	18
939	1017	2.758	1	10	-25	HC	loss	loss2	19
939	1017	1.287	1	4	-25	HC	loss	loss2	20
939	1017	1.874	1	8	-20	HC	loss	loss2	21
939	1017	1.31	1	8	-5	HC	loss	loss2	22
939	1017	1.249	1	2	-5	HC	loss	loss2	23
939	1017	1.181	1	6	-25	HC	loss	loss2	24
939	1017	1.389	1	4	-20	HC	loss	loss2	25
939	1017	0.534	1	10	-25	HC	loss	loss2	26
939	1017	0.799	1	4	-20	HC	loss	loss2	27
939	1017	0.286	1	4	-10	HC	loss	loss2	28
939	1017	1.217	0	10	-5	HC	loss	loss2	29
939	1017	1.038	1	2	-5	HC	loss	loss2	30
939	1017	1.603	0	6	-25	HC	loss	loss2	31
939	1017	2.689	1	8	-10	HC	loss	loss2	32
939	1017	1.933	1	8	-25	HC	loss	loss2	33
939	1017	1.702	1	8	-15	HC	loss	loss2	34
939	1017	1.873	1	10	-10	HC	loss	loss2	35
939	1017	1.013	1	2	-10	HC	loss	loss2	36
939	1017	0.627	1	2	-20	HC	loss	loss2	37
939	1017	0.464	1	6	-5	HC	loss	loss2	38
939	1017	0.7	1	2	-15	HC	loss	loss2	39
939	1017	0.407	1	8	-20	HC	loss	loss2	40
939	1017	1.277	1	6	-15	HC	loss	loss2	41
939	1017	0.928	1	4	-25	HC	loss	loss2	42
939	1017	1.754	1	10	-15	HC	loss	loss2	43
939	1017	1.074	1	4	-5	HC	loss	loss2	44
939	1017	0.838	1	6	-10	HC	loss	loss2	45
939	1017	1.54	0	8	-5	HC	loss	loss2	46
939	1017	1.565	1	2	-25	HC	loss	loss2	47
939	1017	1.061	1	4	-15	HC	loss	loss2	48
939	1017	1.673	1	10	-20	HC	loss	loss2	49
939	1017	0.837	1	6	-20	HC	loss	loss2	50
940	1018	2.251	1	4	-25	HC	loss	loss2	1
940	1018	0.84	1	4	-5	HC	loss	loss2	2
940	1018	2.333	1	6	-20	HC	loss	loss2	3
940	1018	0.263	1	10	-15	HC	loss	loss2	4
940	1018	0.915	1	4	-15	HC	loss	loss2	5
940	1018	0.269	1	2	-25	HC	loss	loss2	6
940	1018	1.048	1	10	-10	HC	loss	loss2	7
940	1018	0.597	1	6	-15	HC	loss	loss2	8
940	1018	0.243	1	8	-15	HC	loss	loss2	9
940	1018	0.24	1	6	-25	HC	loss	loss2	10
940	1018	0.277	1	6	-5	HC	loss	loss2	11
940	1018	1.736	1	2	-20	HC	loss	loss2	12
940	1018	0.713	1	2	-10	HC	loss	loss2	13
940	1018	2.619	1	2	-15	HC	loss	loss2	14
940	1018	0.313	1	8	-10	HC	loss	loss2	15
940	1018	0.339	1	2	-5	HC	loss	loss2	16
940	1018	1.428	1	10	-25	HC	loss	loss2	17
940	1018	1.426	1	8	-5	HC	loss	loss2	18
940	1018	0.863	1	10	-20	HC	loss	loss2	19
940	1018	0.762	1	6	-10	HC	loss	loss2	20
940	1018	2.026	1	10	-5	HC	loss	loss2	21
940	1018	0.975	1	4	-10	HC	loss	loss2	22
940	1018	1.783	1	8	-25	HC	loss	loss2	23
940	1018	0.43	1	8	-20	HC	loss	loss2	24
940	1018	0.595	1	4	-20	HC	loss	loss2	25
940	1018	1.033	1	6	-5	HC	loss	loss2	26
940	1018	0.478	1	6	-10	HC	loss	loss2	27
940	1018	0.569	1	6	-15	HC	loss	loss2	28
940	1018	0.721	1	8	-25	HC	loss	loss2	29
940	1018	2.171	1	4	-25	HC	loss	loss2	30
940	1018	0.742	1	8	-20	HC	loss	loss2	31
940	1018	0.247	1	4	-10	HC	loss	loss2	32
940	1018	0.427	1	6	-20	HC	loss	loss2	33
940	1018	0.688	1	10	-15	HC	loss	loss2	34
940	1018	0.795	1	2	-20	HC	loss	loss2	35
940	1018	0.322	1	10	-10	HC	loss	loss2	36
940	1018	0.412	1	4	-5	HC	loss	loss2	37
940	1018	0.649	1	10	-20	HC	loss	loss2	38
940	1018	0.83	1	10	-25	HC	loss	loss2	39
940	1018	0.299	1	2	-25	HC	loss	loss2	40
940	1018	0.837	1	2	-10	HC	loss	loss2	41
940	1018	0.226	1	4	-15	HC	loss	loss2	42
940	1018	0.359	1	6	-25	HC	loss	loss2	43
940	1018	0.463	1	8	-5	HC	loss	loss2	44
940	1018	0.547	1	10	-5	HC	loss	loss2	45
940	1018	1.099	1	2	-15	HC	loss	loss2	46
940	1018	1.598	1	8	-15	HC	loss	loss2	47
940	1018	1.356	1	8	-10	HC	loss	loss2	48
940	1018	0.5	1	2	-5	HC	loss	loss2	49
940	1018	0.399	1	4	-20	HC	loss	loss2	50
941	1019	2.888	1	4	-10	HC	loss	loss2	1
941	1019	1.812	1	10	-25	HC	loss	loss2	2
941	1019	0.85	1	2	-5	HC	loss	loss2	3
941	1019	0.606	1	8	-10	HC	loss	loss2	4
941	1019	0.749	1	6	-5	HC	loss	loss2	5
941	1019	1.085	1	10	-10	HC	loss	loss2	6
941	1019	0.425	1	2	-20	HC	loss	loss2	7
941	1019	0.734	1	4	-5	HC	loss	loss2	8
941	1019	0.655	1	6	-25	HC	loss	loss2	9
941	1019	1.123	1	6	-15	HC	loss	loss2	10
941	1019	0.861	1	4	-20	HC	loss	loss2	11
941	1019	0.585	1	2	-25	HC	loss	loss2	12
941	1019	0.632	1	2	-15	HC	loss	loss2	13
941	1019	0.613	1	6	-20	HC	loss	loss2	14
941	1019	0.691	1	8	-5	HC	loss	loss2	15
941	1019	0.67	1	8	-15	HC	loss	loss2	16
941	1019	0.586	1	8	-20	HC	loss	loss2	17
941	1019	1.385	1	10	-15	HC	loss	loss2	18
941	1019	0.745	1	2	-10	HC	loss	loss2	19
941	1019	0.761	1	4	-25	HC	loss	loss2	20
941	1019	1.161	1	10	-20	HC	loss	loss2	21
941	1019	0.481	1	8	-25	HC	loss	loss2	22
941	1019	0.388	1	6	-10	HC	loss	loss2	23
941	1019	0.675	1	4	-15	HC	loss	loss2	24
941	1019	2.47	1	10	-5	HC	loss	loss2	25
941	1019	1.374	1	2	-5	HC	loss	loss2	26
941	1019	0.886	1	6	-20	HC	loss	loss2	27
941	1019	0.513	1	2	-20	HC	loss	loss2	28
941	1019	0.707	1	2	-10	HC	loss	loss2	29
941	1019	0.661	1	6	-15	HC	loss	loss2	30
941	1019	0.625	1	4	-10	HC	loss	loss2	31
941	1019	0.43	1	10	-10	HC	loss	loss2	32
941	1019	1.099	1	10	-15	HC	loss	loss2	33
941	1019	0.414	1	4	-20	HC	loss	loss2	34
941	1019	0.499	1	4	-5	HC	loss	loss2	35
941	1019	0.742	1	6	-10	HC	loss	loss2	36
941	1019	0.462	1	10	-25	HC	loss	loss2	37
941	1019	1.722	1	10	-20	HC	loss	loss2	38
941	1019	0.836	1	8	-20	HC	loss	loss2	39
941	1019	0.721	1	2	-25	HC	loss	loss2	40
941	1019	2.459	0	10	-5	HC	loss	loss2	41
941	1019	0.983	1	2	-15	HC	loss	loss2	42
941	1019	0.695	1	6	-25	HC	loss	loss2	43
941	1019	0.609	1	4	-25	HC	loss	loss2	44
941	1019	0.679	1	8	-15	HC	loss	loss2	45
941	1019	0.626	1	8	-25	HC	loss	loss2	46
941	1019	0.519	1	4	-15	HC	loss	loss2	47
941	1019	0.761	1	8	-10	HC	loss	loss2	48
941	1019	0.505	1	6	-5	HC	loss	loss2	49
941	1019	0.339	1	8	-5	HC	loss	loss2	50
943	1020	1.419	1	6	-10	HC	loss	loss2	1
943	1020	0.537	1	6	-15	HC	loss	loss2	2
943	1020	0.866	1	10	-15	HC	loss	loss2	3
943	1020	1.03	1	10	-10	HC	loss	loss2	4
943	1020	0.531	1	2	-5	HC	loss	loss2	5
943	1020	1.076	1	8	-5	HC	loss	loss2	6
943	1020	0.648	1	4	-25	HC	loss	loss2	7
943	1020	0.5	1	4	-5	HC	loss	loss2	8
943	1020	0.663	1	2	-10	HC	loss	loss2	9
943	1020	0.602	1	10	-25	HC	loss	loss2	10
943	1020	0.673	1	4	-20	HC	loss	loss2	11
943	1020	0.701	1	6	-5	HC	loss	loss2	12
943	1020	0.783	1	8	-25	HC	loss	loss2	13
943	1020	0.638	1	2	-20	HC	loss	loss2	14
943	1020	0.443	1	6	-20	HC	loss	loss2	15
943	1020	0.656	1	10	-20	HC	loss	loss2	16
943	1020	0.628	1	2	-25	HC	loss	loss2	17
943	1020	0.793	1	8	-15	HC	loss	loss2	18
943	1020	0.68	1	8	-20	HC	loss	loss2	19
943	1020	0.443	1	6	-25	HC	loss	loss2	20
943	1020	0.72	1	10	-5	HC	loss	loss2	21
943	1020	0.912	1	4	-10	HC	loss	loss2	22
943	1020	1.178	1	2	-15	HC	loss	loss2	23
943	1020	0.738	1	4	-15	HC	loss	loss2	24
943	1020	0.531	1	8	-10	HC	loss	loss2	25
943	1020	0.388	1	6	-20	HC	loss	loss2	26
943	1020	0.467	1	6	-25	HC	loss	loss2	27
943	1020	0.67	1	8	-25	HC	loss	loss2	28
943	1020	0.394	1	8	-5	HC	loss	loss2	29
943	1020	0.505	1	10	-20	HC	loss	loss2	30
943	1020	0.523	1	4	-15	HC	loss	loss2	31
943	1020	0.613	1	4	-10	HC	loss	loss2	32
943	1020	0.507	1	10	-5	HC	loss	loss2	33
943	1020	0.709	1	2	-15	HC	loss	loss2	34
943	1020	1.631	0	10	-25	HC	loss	loss2	35
943	1020	2.26	1	6	-15	HC	loss	loss2	36
943	1020	1.456	1	4	-25	HC	loss	loss2	37
943	1020	0.629	1	10	-15	HC	loss	loss2	38
943	1020	0.45	1	8	-20	HC	loss	loss2	39
943	1020	0.519	1	2	-20	HC	loss	loss2	40
943	1020	0.384	1	4	-5	HC	loss	loss2	41
943	1020	0.527	1	10	-10	HC	loss	loss2	42
943	1020	0.665	1	8	-15	HC	loss	loss2	43
943	1020	0.596	1	4	-20	HC	loss	loss2	44
943	1020	0.651	1	6	-5	HC	loss	loss2	45
943	1020	0.951	1	2	-25	HC	loss	loss2	46
943	1020	0.504	1	2	-10	HC	loss	loss2	47
943	1020	1.513	1	2	-5	HC	loss	loss2	48
943	1020	0.747	1	6	-10	HC	loss	loss2	49
943	1020	0.524	1	8	-10	HC	loss	loss2	50
944	1021	2.008	1	8	-10	HC	loss	loss2	1
944	1021	0.679	0	8	-25	HC	loss	loss2	2
944	1021	0.561	1	6	-20	HC	loss	loss2	3
944	1021	0.257	1	6	-15	HC	loss	loss2	4
944	1021	0.494	1	6	-10	HC	loss	loss2	5
944	1021	0.536	1	8	-20	HC	loss	loss2	6
944	1021	0.362	1	2	-15	HC	loss	loss2	7
944	1021	0.418	1	10	-20	HC	loss	loss2	8
944	1021	0.256	1	10	-10	HC	loss	loss2	9
944	1021	0.476	1	10	-15	HC	loss	loss2	10
944	1021	0.422	1	6	-25	HC	loss	loss2	11
944	1021	0.684	1	4	-15	HC	loss	loss2	12
944	1021	1.015	1	2	-20	HC	loss	loss2	13
944	1021	1.941	1	2	-25	HC	loss	loss2	14
944	1021	0.67	1	4	-5	HC	loss	loss2	15
944	1021	0.362	1	4	-10	HC	loss	loss2	16
944	1021	0.609	1	4	-20	HC	loss	loss2	17
944	1021	0.295	1	2	-10	HC	loss	loss2	18
944	1021	0.503	1	8	-5	HC	loss	loss2	19
944	1021	0.278	1	8	-15	HC	loss	loss2	20
944	1021	0.281	1	10	-25	HC	loss	loss2	21
944	1021	0.244	1	2	-5	HC	loss	loss2	22
944	1021	0.513	1	10	-5	HC	loss	loss2	23
944	1021	0.275	1	6	-5	HC	loss	loss2	24
944	1021	0.43	1	4	-25	HC	loss	loss2	25
944	1021	1.297	1	6	-20	HC	loss	loss2	26
944	1021	0.732	1	6	-10	HC	loss	loss2	27
944	1021	0.661	1	8	-10	HC	loss	loss2	28
944	1021	1.313	1	4	-25	HC	loss	loss2	29
944	1021	0.531	1	4	-20	HC	loss	loss2	30
944	1021	0.348	1	6	-25	HC	loss	loss2	31
944	1021	0.3	1	8	-5	HC	loss	loss2	32
944	1021	0.207	1	8	-20	HC	loss	loss2	33
944	1021	0.525	1	2	-25	HC	loss	loss2	34
944	1021	0.719	1	8	-25	HC	loss	loss2	35
944	1021	0.376	1	4	-15	HC	loss	loss2	36
944	1021	0.711	1	10	-10	HC	loss	loss2	37
944	1021	0.465	1	2	-10	HC	loss	loss2	38
944	1021	0.876	1	4	-10	HC	loss	loss2	39
944	1021	0.311	1	10	-5	HC	loss	loss2	40
944	1021	0.329	1	6	-15	HC	loss	loss2	41
944	1021	0.314	1	10	-20	HC	loss	loss2	42
944	1021	0.548	1	8	-15	HC	loss	loss2	43
944	1021	0.485	1	6	-5	HC	loss	loss2	44
944	1021	0.621	1	2	-15	HC	loss	loss2	45
944	1021	0.723	1	4	-5	HC	loss	loss2	46
944	1021	0.316	1	2	-20	HC	loss	loss2	47
944	1021	0.766	1	10	-25	HC	loss	loss2	48
944	1021	0.67	1	10	-15	HC	loss	loss2	49
944	1021	0.33	1	2	-5	HC	loss	loss2	50
945	1022	1.392	1	8	-15	HC	loss	loss2	1
945	1022	0.519	1	8	-20	HC	loss	loss2	2
945	1022	0.32	1	10	-25	HC	loss	loss2	3
945	1022	0.29	1	4	-20	HC	loss	loss2	4
945	1022	0.349	1	10	-10	HC	loss	loss2	5
945	1022	0.349	1	2	-10	HC	loss	loss2	6
945	1022	0.366	1	4	-10	HC	loss	loss2	7
945	1022	0.326	1	2	-15	HC	loss	loss2	8
945	1022	0.239	1	6	-10	HC	loss	loss2	9
945	1022	0.636	1	2	-5	HC	loss	loss2	10
945	1022	0.553	1	8	-5	HC	loss	loss2	11
945	1022	0.505	1	4	-5	HC	loss	loss2	12
945	1022	0.604	1	6	-20	HC	loss	loss2	13
945	1022	1.106	1	4	-25	HC	loss	loss2	14
945	1022	0.317	1	10	-5	HC	loss	loss2	15
945	1022	0.47	1	10	-15	HC	loss	loss2	16
945	1022	2.306	1	8	-10	HC	loss	loss2	17
945	1022	0.749	1	2	-25	HC	loss	loss2	18
945	1022	0.958	1	10	-20	HC	loss	loss2	19
945	1022	0.59	1	6	-15	HC	loss	loss2	20
945	1022	0.445	1	8	-25	HC	loss	loss2	21
945	1022	1.618	1	6	-25	HC	loss	loss2	22
945	1022	0.455	1	6	-5	HC	loss	loss2	23
945	1022	0.267	1	4	-15	HC	loss	loss2	24
945	1022	0.887	1	2	-20	HC	loss	loss2	25
945	1022	0.631	1	6	-10	HC	loss	loss2	26
945	1022	0.716	1	4	-20	HC	loss	loss2	27
945	1022	0.358	1	2	-5	HC	loss	loss2	28
945	1022	0.67	1	6	-5	HC	loss	loss2	29
945	1022	2.594	1	10	-5	HC	loss	loss2	30
945	1022	0.697	1	6	-15	HC	loss	loss2	31
945	1022	0.371	1	8	-5	HC	loss	loss2	32
945	1022	0.531	1	10	-25	HC	loss	loss2	33
945	1022	0.684	1	8	-20	HC	loss	loss2	34
945	1022	0.455	1	10	-10	HC	loss	loss2	35
945	1022	1.076	1	10	-20	HC	loss	loss2	36
945	1022	0.671	1	8	-25	HC	loss	loss2	37
945	1022	0.347	1	8	-15	HC	loss	loss2	38
945	1022	0.563	1	2	-20	HC	loss	loss2	39
945	1022	0.411	1	4	-25	HC	loss	loss2	40
945	1022	0.465	1	10	-15	HC	loss	loss2	41
945	1022	0.484	1	2	-10	HC	loss	loss2	42
945	1022	0.543	1	8	-10	HC	loss	loss2	43
945	1022	0.576	1	4	-15	HC	loss	loss2	44
945	1022	0.503	1	6	-20	HC	loss	loss2	45
945	1022	0.377	1	2	-25	HC	loss	loss2	46
945	1022	0.4	1	6	-25	HC	loss	loss2	47
945	1022	0.823	1	4	-5	HC	loss	loss2	48
945	1022	0.597	1	4	-10	HC	loss	loss2	49
945	1022	0.474	1	2	-15	HC	loss	loss2	50
946	1023	3.16	1	2	-15	HC	loss	loss2	1
946	1023	2.064	1	10	-10	HC	loss	loss2	2
946	1023	3.941	1	6	-25	HC	loss	loss2	3
946	1023	1.727	1	6	-10	HC	loss	loss2	4
946	1023	3.248	0	10	-5	HC	loss	loss2	5
946	1023	3.645	1	8	-20	HC	loss	loss2	6
946	1023	4.994	1	6	-5	HC	loss	loss2	7
946	1023	2.634	1	8	-5	HC	loss	loss2	8
946	1023	1.576	1	2	-5	HC	loss	loss2	9
946	1023	2.743	1	4	-20	HC	loss	loss2	10
946	1023	2.136	1	4	-15	HC	loss	loss2	11
946	1023	4.066	1	10	-25	HC	loss	loss2	12
946	1023	2.455	1	8	-15	HC	loss	loss2	13
946	1023	3.187	1	10	-15	HC	loss	loss2	14
946	1023	2.523	1	10	-20	HC	loss	loss2	15
946	1023	6.478	1	4	-5	HC	loss	loss2	16
946	1023	1.835	1	2	-10	HC	loss	loss2	17
946	1023	2.264	1	2	-25	HC	loss	loss2	18
946	1023	3.229	1	6	-15	HC	loss	loss2	19
946	1023	1.611	1	4	-10	HC	loss	loss2	20
946	1023	3.113	1	6	-20	HC	loss	loss2	21
946	1023	7.331	1	8	-10	HC	loss	loss2	22
946	1023	2.319	1	4	-25	HC	loss	loss2	23
946	1023	2.329	1	8	-25	HC	loss	loss2	24
946	1023	1.771	1	2	-20	HC	loss	loss2	25
946	1023	1.998	0	10	-5	HC	loss	loss2	26
946	1023	4.011	1	8	-20	HC	loss	loss2	27
946	1023	7.458	1	10	-15	HC	loss	loss2	28
946	1023	1.697	1	2	-25	HC	loss	loss2	29
946	1023	4.427	1	6	-25	HC	loss	loss2	30
946	1023	2.698	1	8	-5	HC	loss	loss2	31
946	1023	1.181	1	2	-20	HC	loss	loss2	32
946	1023	4.71	1	2	-10	HC	loss	loss2	33
946	1023	2.513	1	4	-5	HC	loss	loss2	34
946	1023	1.747	1	4	-15	HC	loss	loss2	35
946	1023	3.86	1	8	-25	HC	loss	loss2	36
946	1023	2.313	1	10	-10	HC	loss	loss2	37
946	1023	1.563	1	2	-15	HC	loss	loss2	38
946	1023	1.172	1	2	-5	HC	loss	loss2	39
946	1023	6.636	1	6	-20	HC	loss	loss2	40
946	1023	1.843	1	6	-15	HC	loss	loss2	41
946	1023	2.32	1	8	-10	HC	loss	loss2	42
946	1023	2.93	1	6	-10	HC	loss	loss2	43
946	1023	2.788	1	4	-10	HC	loss	loss2	44
946	1023	2.724	1	10	-20	HC	loss	loss2	45
946	1023	1.91	1	6	-5	HC	loss	loss2	46
946	1023	1.656	1	4	-25	HC	loss	loss2	47
946	1023	3.717	1	10	-25	HC	loss	loss2	48
946	1023	1.359	1	4	-20	HC	loss	loss2	49
946	1023	4.583	1	8	-15	HC	loss	loss2	50
947	1024	3.073	0	8	-10	HC	loss	loss2	1
947	1024	1.597	1	6	-10	HC	loss	loss2	2
947	1024	1.212	1	6	-5	HC	loss	loss2	3
947	1024	0.898	1	2	-15	HC	loss	loss2	4
947	1024	0.628	1	6	-25	HC	loss	loss2	5
947	1024	0.874	1	10	-20	HC	loss	loss2	6
947	1024	0.621	1	6	-15	HC	loss	loss2	7
947	1024	0.595	1	8	-25	HC	loss	loss2	8
947	1024	0.602	1	4	-20	HC	loss	loss2	9
947	1024	0.432	1	2	-10	HC	loss	loss2	10
947	1024	0.301	1	8	-15	HC	loss	loss2	11
947	1024	0.568	1	8	-5	HC	loss	loss2	12
947	1024	0.599	1	4	-15	HC	loss	loss2	13
947	1024	0.71	1	8	-20	HC	loss	loss2	14
947	1024	0.944	1	6	-20	HC	loss	loss2	15
947	1024	1.208	1	10	-25	HC	loss	loss2	16
947	1024	1.462	1	10	-15	HC	loss	loss2	17
947	1024	0.722	1	4	-10	HC	loss	loss2	18
947	1024	0.716	1	2	-25	HC	loss	loss2	19
947	1024	2.462	0	10	-5	HC	loss	loss2	20
947	1024	1.01	1	2	-20	HC	loss	loss2	21
947	1024	1.064	1	2	-5	HC	loss	loss2	22
947	1024	0.628	1	4	-25	HC	loss	loss2	23
947	1024	1.009	1	4	-5	HC	loss	loss2	24
947	1024	1.719	1	10	-10	HC	loss	loss2	25
947	1024	3.158	1	4	-15	HC	loss	loss2	26
947	1024	0.247	1	2	-5	HC	loss	loss2	27
947	1024	0.747	1	8	-10	HC	loss	loss2	28
947	1024	2.148	1	4	-5	HC	loss	loss2	29
947	1024	1.813	1	8	-5	HC	loss	loss2	30
947	1024	0.763	1	8	-25	HC	loss	loss2	31
947	1024	0.859	1	6	-25	HC	loss	loss2	32
947	1024	0.439	1	4	-20	HC	loss	loss2	33
947	1024	1.18	1	10	-10	HC	loss	loss2	34
947	1024	2.203	1	10	-20	HC	loss	loss2	35
947	1024	0.962	1	4	-25	HC	loss	loss2	36
947	1024	0.562	1	10	-25	HC	loss	loss2	37
947	1024	1.17	1	8	-15	HC	loss	loss2	38
947	1024	0.674	1	2	-25	HC	loss	loss2	39
947	1024	2.846	1	10	-15	HC	loss	loss2	40
947	1024	0.675	1	6	-5	HC	loss	loss2	41
947	1024	1.503	0	10	-5	HC	loss	loss2	42
947	1024	0.953	1	4	-10	HC	loss	loss2	43
947	1024	2.007	1	6	-10	HC	loss	loss2	44
947	1024	1.614	1	2	-15	HC	loss	loss2	45
947	1024	0.796	1	2	-20	HC	loss	loss2	46
947	1024	0.603	1	2	-10	HC	loss	loss2	47
947	1024	0.449	1	8	-20	HC	loss	loss2	48
947	1024	0.62	1	6	-15	HC	loss	loss2	49
947	1024	0.907	1	6	-20	HC	loss	loss2	50
948	1025	1.718	1	6	-20	HC	loss	loss2	1
948	1025	0.648	1	4	-10	HC	loss	loss2	2
948	1025	0.332	1	8	-10	HC	loss	loss2	3
948	1025	0.23	1	6	-15	HC	loss	loss2	4
948	1025	0.258	1	10	-10	HC	loss	loss2	5
948	1025	0.254	1	6	-25	HC	loss	loss2	6
948	1025	0.242	1	6	-10	HC	loss	loss2	7
948	1025	0.207	1	8	-20	HC	loss	loss2	8
948	1025	0.26	1	4	-20	HC	loss	loss2	9
948	1025	0.207	1	2	-25	HC	loss	loss2	10
948	1025	0.389	1	10	-25	HC	loss	loss2	11
948	1025	0.316	1	8	-5	HC	loss	loss2	12
948	1025	0.581	1	2	-15	HC	loss	loss2	13
948	1025	0.349	1	6	-5	HC	loss	loss2	14
948	1025	0.317	1	8	-25	HC	loss	loss2	15
948	1025	0.247	1	8	-15	HC	loss	loss2	16
948	1025	0.259	1	10	-20	HC	loss	loss2	17
948	1025	0.239	1	10	-5	HC	loss	loss2	18
948	1025	0.228	1	4	-25	HC	loss	loss2	19
948	1025	0.689	1	2	-5	HC	loss	loss2	20
948	1025	0.124	1	4	-15	HC	loss	loss2	21
948	1025	0.229	1	2	-20	HC	loss	loss2	22
948	1025	0.369	1	10	-15	HC	loss	loss2	23
948	1025	0.297	1	2	-10	HC	loss	loss2	24
948	1025	0.521	1	4	-5	HC	loss	loss2	25
948	1025	0.243	1	6	-25	HC	loss	loss2	26
948	1025	0.303	1	2	-10	HC	loss	loss2	27
948	1025	0.328	1	6	-5	HC	loss	loss2	28
948	1025	0.41	1	6	-20	HC	loss	loss2	29
948	1025	0.767	1	4	-20	HC	loss	loss2	30
948	1025	0.407	1	4	-10	HC	loss	loss2	31
948	1025	0.517	1	10	-10	HC	loss	loss2	32
948	1025	0.279	1	6	-15	HC	loss	loss2	33
948	1025	0.49	1	2	-20	HC	loss	loss2	34
948	1025	0.34	1	8	-25	HC	loss	loss2	35
948	1025	0.228	1	2	-15	HC	loss	loss2	36
948	1025	0.272	1	8	-5	HC	loss	loss2	37
948	1025	0.276	1	8	-15	HC	loss	loss2	38
948	1025	0.214	1	6	-10	HC	loss	loss2	39
948	1025	0.028	1	4	-15	HC	loss	loss2	40
948	1025	0.145	1	4	-5	HC	loss	loss2	41
948	1025	0.145	1	2	-25	HC	loss	loss2	42
948	1025	0.066	1	10	-5	HC	loss	loss2	43
948	1025	0.221	1	2	-5	HC	loss	loss2	44
948	1025	0.195	1	10	-25	HC	loss	loss2	45
948	1025	0.21	1	8	-20	HC	loss	loss2	46
948	1025	0.239	1	8	-10	HC	loss	loss2	47
948	1025	0.011	1	10	-20	HC	loss	loss2	48
948	1025	0.265	1	10	-15	HC	loss	loss2	49
948	1025	0.204	1	4	-25	HC	loss	loss2	50
950	1026	5.813	1	4	-20	HC	loss	loss2	1
950	1026	1.924	0	10	-5	HC	loss	loss2	2
950	1026	1.646	1	2	-10	HC	loss	loss2	3
950	1026	2.771	1	2	-25	HC	loss	loss2	4
950	1026	1.739	0	6	-10	HC	loss	loss2	5
950	1026	2.197	1	6	-20	HC	loss	loss2	6
950	1026	2.596	1	2	-15	HC	loss	loss2	7
950	1026	1.938	0	8	-10	HC	loss	loss2	8
950	1026	2.027	1	4	-15	HC	loss	loss2	9
950	1026	2.049	1	2	-20	HC	loss	loss2	10
950	1026	2.518	1	10	-25	HC	loss	loss2	11
950	1026	2.088	0	8	-15	HC	loss	loss2	12
950	1026	1.475	0	10	-15	HC	loss	loss2	13
950	1026	1.807	0	10	-10	HC	loss	loss2	14
950	1026	1.734	1	4	-25	HC	loss	loss2	15
950	1026	2.703	0	4	-10	HC	loss	loss2	16
950	1026	2.298	1	6	-15	HC	loss	loss2	17
950	1026	1.669	0	10	-20	HC	loss	loss2	18
950	1026	1.745	0	4	-5	HC	loss	loss2	19
950	1026	2.289	1	6	-25	HC	loss	loss2	20
950	1026	1.557	0	8	-5	HC	loss	loss2	21
950	1026	2.133	0	6	-5	HC	loss	loss2	22
950	1026	2.535	0	2	-5	HC	loss	loss2	23
950	1026	1.872	1	8	-25	HC	loss	loss2	24
950	1026	1.882	0	8	-20	HC	loss	loss2	25
950	1026	9.458	0	8	-25	HC	loss	loss2	26
950	1026	1.841	0	2	-5	HC	loss	loss2	27
950	1026	3.894	0	10	-15	HC	loss	loss2	28
950	1026	6.449	1	10	-25	HC	loss	loss2	29
950	1026	1.736	0	8	-10	HC	loss	loss2	30
950	1026	3.296	1	8	-20	HC	loss	loss2	31
950	1026	1.587	1	4	-15	HC	loss	loss2	32
950	1026	1.963	1	6	-25	HC	loss	loss2	33
950	1026	1.411	1	2	-15	HC	loss	loss2	34
950	1026	1.657	0	8	-15	HC	loss	loss2	35
950	1026	1.917	0	6	-5	HC	loss	loss2	36
950	1026	2.023	1	4	-20	HC	loss	loss2	37
950	1026	1.517	0	8	-5	HC	loss	loss2	38
950	1026	1.215	0	10	-10	HC	loss	loss2	39
950	1026	1.565	1	2	-10	HC	loss	loss2	40
950	1026	1.549	1	2	-20	HC	loss	loss2	41
950	1026	1.278	0	6	-15	HC	loss	loss2	42
950	1026	1.705	0	10	-5	HC	loss	loss2	43
950	1026	1.851	0	6	-10	HC	loss	loss2	44
950	1026	1.304	1	4	-25	HC	loss	loss2	45
950	1026	1.818	0	6	-20	HC	loss	loss2	46
950	1026	2.296	0	4	-10	HC	loss	loss2	47
950	1026	2.003	0	10	-20	HC	loss	loss2	48
950	1026	2.162	1	2	-25	HC	loss	loss2	49
950	1026	1.81	0	4	-5	HC	loss	loss2	50
952	1027	6.703	1	4	-20	HC	loss	loss2	1
952	1027	1.066	1	8	-20	HC	loss	loss2	2
952	1027	2.094	1	8	-10	HC	loss	loss2	3
952	1027	0.689	1	2	-10	HC	loss	loss2	4
952	1027	1.301	1	2	-25	HC	loss	loss2	5
952	1027	0.783	1	10	-5	HC	loss	loss2	6
952	1027	1.702	1	10	-15	HC	loss	loss2	7
952	1027	0.993	1	2	-20	HC	loss	loss2	8
952	1027	1.287	1	4	-5	HC	loss	loss2	9
952	1027	0.803	1	2	-15	HC	loss	loss2	10
952	1027	0.913	1	6	-25	HC	loss	loss2	11
952	1027	1.155	1	4	-25	HC	loss	loss2	12
952	1027	1.028	1	6	-10	HC	loss	loss2	13
952	1027	0.889	1	10	-20	HC	loss	loss2	14
952	1027	1.54	1	6	-20	HC	loss	loss2	15
952	1027	1.078	1	8	-25	HC	loss	loss2	16
952	1027	1.073	1	6	-5	HC	loss	loss2	17
952	1027	0.437	1	10	-25	HC	loss	loss2	18
952	1027	0.514	1	6	-15	HC	loss	loss2	19
952	1027	1.076	1	4	-10	HC	loss	loss2	20
952	1027	0.631	1	10	-10	HC	loss	loss2	21
952	1027	0.732	1	8	-5	HC	loss	loss2	22
952	1027	0.765	1	4	-15	HC	loss	loss2	23
952	1027	0.837	1	8	-15	HC	loss	loss2	24
952	1027	2.378	1	2	-5	HC	loss	loss2	25
952	1027	0.742	1	4	-10	HC	loss	loss2	26
952	1027	0.886	1	10	-25	HC	loss	loss2	27
952	1027	0.818	1	4	-25	HC	loss	loss2	28
952	1027	0.343	1	10	-15	HC	loss	loss2	29
952	1027	1.295	1	8	-25	HC	loss	loss2	30
952	1027	1.602	1	4	-15	HC	loss	loss2	31
952	1027	0.776	1	2	-20	HC	loss	loss2	32
952	1027	0.96	1	8	-5	HC	loss	loss2	33
952	1027	1.095	1	6	-25	HC	loss	loss2	34
952	1027	0.994	1	8	-10	HC	loss	loss2	35
952	1027	0.537	1	6	-20	HC	loss	loss2	36
952	1027	0.386	1	10	-20	HC	loss	loss2	37
952	1027	0.977	1	2	-15	HC	loss	loss2	38
952	1027	0.36	1	8	-20	HC	loss	loss2	39
952	1027	0.68	1	10	-5	HC	loss	loss2	40
952	1027	0.755	1	10	-10	HC	loss	loss2	41
952	1027	0.875	1	6	-5	HC	loss	loss2	42
952	1027	0.943	1	6	-10	HC	loss	loss2	43
952	1027	1.319	1	6	-15	HC	loss	loss2	44
952	1027	0.521	1	2	-25	HC	loss	loss2	45
952	1027	0.899	1	8	-15	HC	loss	loss2	46
952	1027	1.118	1	4	-20	HC	loss	loss2	47
952	1027	1.008	1	4	-5	HC	loss	loss2	48
952	1027	0.75	1	2	-10	HC	loss	loss2	49
952	1027	0.639	1	2	-5	HC	loss	loss2	50
955	1028	1.866	1	4	-25	HC	loss	loss2	1
955	1028	0.718	1	6	-15	HC	loss	loss2	2
955	1028	0.848	1	4	-15	HC	loss	loss2	3
955	1028	1.349	1	8	-25	HC	loss	loss2	4
955	1028	1.781	1	2	-25	HC	loss	loss2	5
955	1028	2.165	1	10	-15	HC	loss	loss2	6
955	1028	1.149	1	6	-25	HC	loss	loss2	7
955	1028	0.542	1	8	-15	HC	loss	loss2	8
955	1028	1.102	1	8	-5	HC	loss	loss2	9
955	1028	0.673	1	4	-10	HC	loss	loss2	10
955	1028	0.477	1	6	-10	HC	loss	loss2	11
955	1028	0.487	1	6	-5	HC	loss	loss2	12
955	1028	0.778	1	2	-15	HC	loss	loss2	13
955	1028	0.217	1	10	-5	HC	loss	loss2	14
955	1028	0.671	1	2	-5	HC	loss	loss2	15
955	1028	0.579	1	4	-5	HC	loss	loss2	16
955	1028	0.41	1	6	-20	HC	loss	loss2	17
955	1028	1.424	1	2	-20	HC	loss	loss2	18
955	1028	0.998	1	4	-20	HC	loss	loss2	19
955	1028	0.284	1	10	-10	HC	loss	loss2	20
955	1028	0.439	1	10	-20	HC	loss	loss2	21
955	1028	0.244	1	2	-10	HC	loss	loss2	22
955	1028	0.393	1	8	-10	HC	loss	loss2	23
955	1028	0.255	1	8	-20	HC	loss	loss2	24
955	1028	0.339	1	10	-25	HC	loss	loss2	25
955	1028	0.374	1	4	-20	HC	loss	loss2	26
955	1028	0.669	1	8	-5	HC	loss	loss2	27
955	1028	0.625	1	4	-5	HC	loss	loss2	28
955	1028	0.342	1	10	-10	HC	loss	loss2	29
955	1028	0.455	1	2	-10	HC	loss	loss2	30
955	1028	0.555	1	4	-15	HC	loss	loss2	31
955	1028	0.547	1	6	-10	HC	loss	loss2	32
955	1028	0.308	1	2	-20	HC	loss	loss2	33
955	1028	0.294	1	2	-5	HC	loss	loss2	34
955	1028	0.289	1	4	-25	HC	loss	loss2	35
955	1028	0.3	1	6	-5	HC	loss	loss2	36
955	1028	0.59	1	2	-25	HC	loss	loss2	37
955	1028	0.901	1	10	-20	HC	loss	loss2	38
955	1028	0.263	1	8	-25	HC	loss	loss2	39
955	1028	0.354	1	10	-5	HC	loss	loss2	40
955	1028	0.251	1	8	-10	HC	loss	loss2	41
955	1028	0.471	1	6	-25	HC	loss	loss2	42
955	1028	1.091	1	10	-25	HC	loss	loss2	43
955	1028	0.374	1	4	-10	HC	loss	loss2	44
955	1028	0.478	1	10	-15	HC	loss	loss2	45
955	1028	0.361	1	6	-15	HC	loss	loss2	46
955	1028	0.264	1	2	-15	HC	loss	loss2	47
955	1028	0.476	1	6	-20	HC	loss	loss2	48
955	1028	0.447	1	8	-20	HC	loss	loss2	49
955	1028	0.476	1	8	-15	HC	loss	loss2	50
960	1029	3.585	1	8	-15	HC	loss	loss2	1
960	1029	2.117	1	6	-25	HC	loss	loss2	2
960	1029	0.953	1	2	-20	HC	loss	loss2	3
960	1029	1.404	1	6	-15	HC	loss	loss2	4
960	1029	0.622	1	4	-20	HC	loss	loss2	5
960	1029	0.727	1	8	-25	HC	loss	loss2	6
960	1029	0.594	1	2	-10	HC	loss	loss2	7
960	1029	1.54	1	10	-5	HC	loss	loss2	8
960	1029	1.313	1	6	-20	HC	loss	loss2	9
960	1029	0.814	1	2	-15	HC	loss	loss2	10
960	1029	3.447	0	10	-25	HC	loss	loss2	11
960	1029	1.759	1	8	-5	HC	loss	loss2	12
960	1029	1.035	1	4	-25	HC	loss	loss2	13
960	1029	0.434	1	10	-20	HC	loss	loss2	14
960	1029	0.331	1	2	-5	HC	loss	loss2	15
960	1029	1.31	1	8	-10	HC	loss	loss2	16
960	1029	1.309	1	4	-15	HC	loss	loss2	17
960	1029	2.905	0	10	-10	HC	loss	loss2	18
960	1029	1.512	1	6	-10	HC	loss	loss2	19
960	1029	1.413	1	4	-5	HC	loss	loss2	20
960	1029	1.999	1	4	-10	HC	loss	loss2	21
960	1029	0.985	1	10	-15	HC	loss	loss2	22
960	1029	0.643	1	6	-5	HC	loss	loss2	23
960	1029	0.78	1	8	-20	HC	loss	loss2	24
960	1029	0.87	1	2	-25	HC	loss	loss2	25
960	1029	2.761	1	4	-25	HC	loss	loss2	26
960	1029	0.654	1	6	-15	HC	loss	loss2	27
960	1029	0.549	1	8	-15	HC	loss	loss2	28
960	1029	0.649	1	4	-20	HC	loss	loss2	29
960	1029	0.666	1	2	-10	HC	loss	loss2	30
960	1029	0.609	1	2	-15	HC	loss	loss2	31
960	1029	0.714	1	2	-25	HC	loss	loss2	32
960	1029	0.791	1	2	-20	HC	loss	loss2	33
960	1029	1.241	1	6	-10	HC	loss	loss2	34
960	1029	3.025	1	10	-25	HC	loss	loss2	35
960	1029	1.21	1	10	-15	HC	loss	loss2	36
960	1029	1.356	1	6	-20	HC	loss	loss2	37
960	1029	0.519	1	4	-5	HC	loss	loss2	38
960	1029	1.092	1	10	-5	HC	loss	loss2	39
960	1029	0.899	1	4	-15	HC	loss	loss2	40
960	1029	0.649	1	10	-10	HC	loss	loss2	41
960	1029	0.673	1	8	-25	HC	loss	loss2	42
960	1029	0.733	1	6	-25	HC	loss	loss2	43
960	1029	0.65	1	4	-10	HC	loss	loss2	44
960	1029	0.882	1	10	-20	HC	loss	loss2	45
960	1029	0.752	1	2	-5	HC	loss	loss2	46
960	1029	0.621	1	8	-20	HC	loss	loss2	47
960	1029	0.125	1	8	-10	HC	loss	loss2	48
960	1029	0.61	1	8	-5	HC	loss	loss2	49
960	1029	0.748	1	6	-5	HC	loss	loss2	50
961	1030	5.435	1	6	-5	HC	loss	loss2	1
961	1030	2.164	1	8	-15	HC	loss	loss2	2
961	1030	0.936	1	10	-5	HC	loss	loss2	3
961	1030	2.493	1	2	-25	HC	loss	loss2	4
961	1030	2.859	1	4	-15	HC	loss	loss2	5
961	1030	1.386	1	10	-10	HC	loss	loss2	6
961	1030	1.621	1	2	-15	HC	loss	loss2	7
961	1030	1.79	1	8	-25	HC	loss	loss2	8
961	1030	4.648	1	2	-10	HC	loss	loss2	9
961	1030	2.321	1	6	-20	HC	loss	loss2	10
961	1030	1.078	1	8	-10	HC	loss	loss2	11
961	1030	2.701	1	8	-20	HC	loss	loss2	12
961	1030	2.035	1	8	-5	HC	loss	loss2	13
961	1030	1.908	1	2	-5	HC	loss	loss2	14
961	1030	2.217	1	2	-20	HC	loss	loss2	15
961	1030	1.891	1	4	-10	HC	loss	loss2	16
961	1030	1.673	1	6	-10	HC	loss	loss2	17
961	1030	1.031	1	4	-5	HC	loss	loss2	18
961	1030	0.592	1	4	-25	HC	loss	loss2	19
961	1030	0.73	1	6	-25	HC	loss	loss2	20
961	1030	3.079	1	10	-25	HC	loss	loss2	21
961	1030	1.574	1	6	-15	HC	loss	loss2	22
961	1030	3.737	1	10	-15	HC	loss	loss2	23
961	1030	1.525	1	10	-20	HC	loss	loss2	24
961	1030	1.706	1	4	-20	HC	loss	loss2	25
961	1030	1.924	1	6	-5	HC	loss	loss2	26
961	1030	1.425	1	8	-5	HC	loss	loss2	27
961	1030	1.545	1	6	-15	HC	loss	loss2	28
961	1030	0.741	1	2	-25	HC	loss	loss2	29
961	1030	0.929	1	6	-10	HC	loss	loss2	30
961	1030	1.342	1	8	-25	HC	loss	loss2	31
961	1030	1.762	1	10	-10	HC	loss	loss2	32
961	1030	1.286	1	10	-20	HC	loss	loss2	33
961	1030	1.085	1	2	-5	HC	loss	loss2	34
961	1030	1.707	1	10	-5	HC	loss	loss2	35
961	1030	1.025	1	6	-25	HC	loss	loss2	36
961	1030	1.754	1	8	-15	HC	loss	loss2	37
961	1030	0.902	1	4	-25	HC	loss	loss2	38
961	1030	0.82	1	4	-15	HC	loss	loss2	39
961	1030	1.109	1	4	-5	HC	loss	loss2	40
961	1030	0.715	1	4	-10	HC	loss	loss2	41
961	1030	1.032	1	2	-20	HC	loss	loss2	42
961	1030	0.737	1	2	-15	HC	loss	loss2	43
961	1030	1.382	1	6	-20	HC	loss	loss2	44
961	1030	1.552	1	2	-10	HC	loss	loss2	45
961	1030	1.332	1	8	-20	HC	loss	loss2	46
961	1030	1.513	1	8	-10	HC	loss	loss2	47
961	1030	1.039	1	10	-15	HC	loss	loss2	48
961	1030	1.071	1	4	-20	HC	loss	loss2	49
961	1030	1.134	1	10	-25	HC	loss	loss2	50
97	1031	2.807	1	8	-10	HC	loss	loss2	1
97	1031	2.008	1	4	-20	HC	loss	loss2	2
97	1031	1.249	1	4	-25	HC	loss	loss2	3
97	1031	1.129	1	4	-5	HC	loss	loss2	4
97	1031	1.782	0	10	-10	HC	loss	loss2	5
97	1031	2.328	0	10	-20	HC	loss	loss2	6
97	1031	2.204	1	8	-5	HC	loss	loss2	7
97	1031	1.589	1	2	-20	HC	loss	loss2	8
97	1031	2.095	1	2	-25	HC	loss	loss2	9
97	1031	8.196	1	6	-25	HC	loss	loss2	10
97	1031	1.814	1	2	-15	HC	loss	loss2	11
97	1031	1.894	1	8	-15	HC	loss	loss2	12
97	1031	1.812	1	4	-15	HC	loss	loss2	13
97	1031	1.181	1	2	-5	HC	loss	loss2	14
97	1031	2.703	0	10	-25	HC	loss	loss2	15
97	1031	0.925	0	10	-15	HC	loss	loss2	1.60E+01
97	1031	0.561	1	4	-10	HC	loss	loss2	17
97	1031	2.477	1	6	-15	HC	loss	loss2	18
97	1031	2.86	1	6	-20	HC	loss	loss2	19
97	1031	5.499	1	6	-5	HC	loss	loss2	20
97	1031	5.753	0	10	-5	HC	loss	loss2	21
97	1031	4.238	1	2	-10	HC	loss	loss2	22
97	1031	7.15	1	8	-25	HC	loss	loss2	23
97	1031	1.776	1	8	-20	HC	loss	loss2	24
97	1031	0.787	1	6	-10	HC	loss	loss2	25
97	1031	1.116	1	8	-25	HC	loss	loss2	26
97	1031	0.801	1	6	-5	HC	loss	loss2	27
97	1031	0.747	1	6	-15	HC	loss	loss2	28
97	1031	0.679	1	10	-25	HC	loss	loss2	29
97	1031	0.727	1	6	-20	HC	loss	loss2	30
97	1031	0.779	1	8	-5	HC	loss	loss2	31
97	1031	0.702	1	10	-20	HC	loss	loss2	32
97	1031	0.98	1	4	-25	HC	loss	loss2	33
97	1031	1.087	1	2	-25	HC	loss	loss2	34
97	1031	1.398	1	6	-25	HC	loss	loss2	35
97	1031	1.72	1	2	-15	HC	loss	loss2	36
97	1031	1.309	1	2	-20	HC	loss	loss2	37
97	1031	1.723	1	8	-15	HC	loss	loss2	38
97	1031	0.744	1	8	-10	HC	loss	loss2	39
97	1031	0.892	1	4	-20	HC	loss	loss2	40
97	1031	0.602	1	6	-10	HC	loss	loss2	41
97	1031	1.036	1	8	-20	HC	loss	loss2	4.20E+01
97	1031	1.069	1	10	-15	HC	loss	loss2	43
97	1031	0.564	1	4	-15	HC	loss	loss2	44
97	1031	0.783	1	4	-10	HC	loss	loss2	45
97	1031	1.306	0	10	-5	HC	loss	loss2	46
97	1031	2.936	1	10	-10	HC	loss	loss2	47
97	1031	1.14	1	2	-5	HC	loss	loss2	48
97	1031	1.569	1	4	-5	HC	loss	loss2	49
97	1031	1.148	1	2	-10	HC	loss	loss2	50
92001	1032	3.032	1	2	-25	HC	loss	loss2	1
92001	1032	1.325	1	2	-10	HC	loss	loss2	2
92001	1032	0.84	1	2	-20	HC	loss	loss2	3
92001	1032	1.419	0	10	-5	HC	loss	loss2	4
92001	1032	0.802	1	6	-20	HC	loss	loss2	5
92001	1032	0.593	1	6	-15	HC	loss	loss2	6
92001	1032	0.586	1	4	-20	HC	loss	loss2	7
92001	1032	1.217	1	8	-10	HC	loss	loss2	8
92001	1032	0.82	1	4	-15	HC	loss	loss2	9
92001	1032	0.687	1	4	-25	HC	loss	loss2	10
92001	1032	0.643	1	4	-5	HC	loss	loss2	11
92001	1032	0.798	1	8	-20	HC	loss	loss2	12
92001	1032	0.781	1	6	-5	HC	loss	loss2	13
92001	1032	0.994	1	8	-5	HC	loss	loss2	14
92001	1032	0.764	1	2	-5	HC	loss	loss2	15
92001	1032	0.601	1	4	-10	HC	loss	loss2	16
92001	1032	2.031	0	10	-20	HC	loss	loss2	17
92001	1032	0.77	1	2	-15	HC	loss	loss2	18
92001	1032	2.421	0	10	-25	HC	loss	loss2	19
92001	1032	0.762	1	8	-25	HC	loss	loss2	20
92001	1032	1.877	1	10	-15	HC	loss	loss2	21
92001	1032	0.846	1	6	-10	HC	loss	loss2	22
92001	1032	0.718	1	6	-25	HC	loss	loss2	23
92001	1032	1.083	1	8	-15	HC	loss	loss2	24
92001	1032	1.155	0	10	-10	HC	loss	loss2	25
92001	1032	0.817	1	6	-20	HC	loss	loss2	26
92001	1032	0.855	1	8	-5	HC	loss	loss2	27
92001	1032	0.776	0	10	-5	HC	loss	loss2	28
92001	1032	0.769	1	6	-15	HC	loss	loss2	29
92001	1032	0.662	1	2	-20	HC	loss	loss2	30
92001	1032	0.934	0	10	-15	HC	loss	loss2	31
92001	1032	0.708	1	2	-15	HC	loss	loss2	32
92001	1032	0.877	1	8	-20	HC	loss	loss2	33
92001	1032	0.805	1	8	-10	HC	loss	loss2	34
92001	1032	0.683	1	4	-15	HC	loss	loss2	35
92001	1032	0.838	1	8	-15	HC	loss	loss2	36
92001	1032	0.975	0	10	-20	HC	loss	loss2	37
92001	1032	0.695	1	6	-25	HC	loss	loss2	38
92001	1032	0.706	1	4	-10	HC	loss	loss2	39
92001	1032	1.074	0	10	-25	HC	loss	loss2	40
92001	1032	0.618	1	6	-5	HC	loss	loss2	41
92001	1032	0.59	1	6	-10	HC	loss	loss2	42
92001	1032	0.534	1	2	-25	HC	loss	loss2	43
92001	1032	0.512	1	4	-25	HC	loss	loss2	44
92001	1032	0.674	1	2	-10	HC	loss	loss2	45
92001	1032	1.235	0	10	-10	HC	loss	loss2	46
92001	1032	0.591	1	4	-20	HC	loss	loss2	47
92001	1032	0.554	1	4	-5	HC	loss	loss2	48
92001	1032	1.187	1	8	-25	HC	loss	loss2	49
92001	1032	0.732	1	2	-5	HC	loss	loss2	50
92004	1033	2.418	1	2	-25	HC	loss	loss2	1
92004	1033	3.641	1	10	-25	HC	loss	loss2	2
92004	1033	3.848	1	8	-15	HC	loss	loss2	3
92004	1033	7.679	1	6	-15	HC	loss	loss2	4
92004	1033	2.3	0	8	-10	HC	loss	loss2	5
92004	1033	1.672	1	2	-15	HC	loss	loss2	6
92004	1033	1.764	0	6	-5	HC	loss	loss2	7
92004	1033	2.383	1	4	-25	HC	loss	loss2	8
92004	1033	3.279	1	10	-15	HC	loss	loss2	9
92004	1033	2.124	1	8	-20	HC	loss	loss2	10
92004	1033	2.168	1	6	-25	HC	loss	loss2	11
92004	1033	4.673	0	6	-10	HC	loss	loss2	12
92004	1033	1.999	0	10	-10	HC	loss	loss2	13
92004	1033	2.04	0	8	-5	HC	loss	loss2	14
92004	1033	2	1	2	-5	HC	loss	loss2	15
92004	1033	1.896	1	4	-15	HC	loss	loss2	16
92004	1033	2.492	1	6	-20	HC	loss	loss2	17
92004	1033	2.433	1	8	-25	HC	loss	loss2	18
92004	1033	3.128	0	10	-5	HC	loss	loss2	19
92004	1033	2.267	1	4	-5	HC	loss	loss2	20
92004	1033	1.809	1	4	-20	HC	loss	loss2	21
92004	1033	2.6	1	4	-10	HC	loss	loss2	22
92004	1033	0.808	1	2	-20	HC	loss	loss2	23
92004	1033	1.504	1	2	-10	HC	loss	loss2	24
92004	1033	3.387	1	10	-20	HC	loss	loss2	25
92004	1033	1.887	0	10	-10	HC	loss	loss2	26
92004	1033	108.884	1	4	-25	HC	loss	loss2	27
92004	1033	1.194	1	4	-10	HC	loss	loss2	28
92004	1033	0.898	1	6	-15	HC	loss	loss2	29
92004	1033	1.198	1	2	-10	HC	loss	loss2	30
92004	1033	1.207	1	8	-25	HC	loss	loss2	31
92004	1033	2.189	1	10	-20	HC	loss	loss2	32
92004	1033	1.373	1	4	-15	HC	loss	loss2	33
92004	1033	1.453	1	2	-25	HC	loss	loss2	34
92004	1033	1.507	1	10	-15	HC	loss	loss2	35
92004	1033	1.461	0	4	-5	HC	loss	loss2	36
92004	1033	1.835	1	2	-15	HC	loss	loss2	37
92004	1033	1.85	0	8	-5	HC	loss	loss2	38
92004	1033	2.496	1	6	-20	HC	loss	loss2	39
92004	1033	1.285	0	6	-5	HC	loss	loss2	40
92004	1033	1.938	1	10	-25	HC	loss	loss2	41
92004	1033	2.284	1	4	-20	HC	loss	loss2	42
92004	1033	2.12	1	8	-15	HC	loss	loss2	43
92004	1033	0.747	1	6	-25	HC	loss	loss2	44
92004	1033	1.717	1	6	-10	HC	loss	loss2	45
92004	1033	1.528	1	2	-5	HC	loss	loss2	46
92004	1033	1.667	1	2	-20	HC	loss	loss2	47
92004	1033	1.225	1	8	-20	HC	loss	loss2	48
92004	1033	1.448	0	10	-5	HC	loss	loss2	49
92004	1033	1.471	1	8	-10	HC	loss	loss2	50
912005	1034	3.311	1	6	-5	HC	loss	loss2	1
912005	1034	0.815	1	8	-10	HC	loss	loss2	2
912005	1034	0.721	1	4	-5	HC	loss	loss2	3
912005	1034	1.234	0	10	-5	HC	loss	loss2	4
912005	1034	0.683	1	2	-10	HC	loss	loss2	5
912005	1034	0.605	1	4	-25	HC	loss	loss2	6
912005	1034	0.865	1	6	-15	HC	loss	loss2	7
912005	1034	0.492	1	4	-20	HC	loss	loss2	8
912005	1034	0.895	1	10	-20	HC	loss	loss2	9
912005	1034	1.528	1	2	-5	HC	loss	loss2	10
912005	1034	0.47	1	6	-25	HC	loss	loss2	11
912005	1034	0.779	1	8	-15	HC	loss	loss2	12
912005	1034	0.636	1	4	-10	HC	loss	loss2	13
912005	1034	1.195	1	2	-20	HC	loss	loss2	14
912005	1034	0.719	1	6	-10	HC	loss	loss2	15
912005	1034	3.674	1	10	-15	HC	loss	loss2	16
912005	1034	2.203	1	10	-25	HC	loss	loss2	17
912005	1034	0.574	1	8	-20	HC	loss	loss2	18
912005	1034	0.826	1	8	-25	HC	loss	loss2	19
912005	1034	1.117	1	8	-5	HC	loss	loss2	20
912005	1034	0.999	1	4	-15	HC	loss	loss2	21
912005	1034	1.184	1	10	-10	HC	loss	loss2	22
912005	1034	0.697	1	2	-25	HC	loss	loss2	23
912005	1034	1.249	1	2	-15	HC	loss	loss2	24
912005	1034	0.641	1	6	-20	HC	loss	loss2	25
912005	1034	0.706	1	4	-20	HC	loss	loss2	26
912005	1034	0.888	1	8	-20	HC	loss	loss2	27
912005	1034	0.61	1	4	-25	HC	loss	loss2	28
912005	1034	1.045	1	10	-15	HC	loss	loss2	29
912005	1034	0.775	1	8	-5	HC	loss	loss2	30
912005	1034	0.826	1	6	-25	HC	loss	loss2	31
912005	1034	0.684	1	6	-5	HC	loss	loss2	32
912005	1034	0.739	1	2	-20	HC	loss	loss2	33
912005	1034	0.662	1	4	-5	HC	loss	loss2	34
912005	1034	0.625	1	6	-10	HC	loss	loss2	35
912005	1034	0.613	1	2	-5	HC	loss	loss2	36
912005	1034	0.628	1	2	-10	HC	loss	loss2	37
912005	1034	4.793	1	10	-25	HC	loss	loss2	38
912005	1034	3.561	1	10	-20	HC	loss	loss2	39
912005	1034	0.843	1	2	-25	HC	loss	loss2	40
912005	1034	0.764	1	8	-10	HC	loss	loss2	41
912005	1034	0.57	1	2	-15	HC	loss	loss2	42
912005	1034	1.345	1	10	-10	HC	loss	loss2	43
912005	1034	0.627	1	6	-15	HC	loss	loss2	44
912005	1034	0.644	1	6	-20	HC	loss	loss2	45
912005	1034	0.614	1	8	-15	HC	loss	loss2	46
912005	1034	0.898	1	4	-15	HC	loss	loss2	47
912005	1034	4.491	1	10	-5	HC	loss	loss2	48
912005	1034	0.703	1	8	-25	HC	loss	loss2	49
912005	1034	0.639	1	4	-10	HC	loss	loss2	50
92006	1035	4.283	1	2	-10	HC	loss	loss2	1
92006	1035	1.596	1	2	-15	HC	loss	loss2	2
92006	1035	0.707	1	4	-15	HC	loss	loss2	3
92006	1035	1.961	1	2	-20	HC	loss	loss2	4
92006	1035	8.068	1	8	-5	HC	loss	loss2	5
92006	1035	4.202	1	2	-5	HC	loss	loss2	6
92006	1035	2.323	1	6	-10	HC	loss	loss2	7
92006	1035	5.505	1	10	-10	HC	loss	loss2	8
92006	1035	3.033	1	8	-20	HC	loss	loss2	9
92006	1035	4.185	1	4	-25	HC	loss	loss2	10
92006	1035	2.138	1	2	-25	HC	loss	loss2	11
92006	1035	1.222	1	6	-15	HC	loss	loss2	12
92006	1035	1.564	1	10	-25	HC	loss	loss2	13
92006	1035	2.342	1	10	-15	HC	loss	loss2	14
92006	1035	0.751	1	8	-15	HC	loss	loss2	15
92006	1035	2.052	1	8	-10	HC	loss	loss2	16
92006	1035	1.045	1	4	-10	HC	loss	loss2	17
92006	1035	7.905	1	6	-5	HC	loss	loss2	18
92006	1035	2.47	1	4	-5	HC	loss	loss2	19
92006	1035	1.577	1	10	-5	HC	loss	loss2	20
92006	1035	2.816	1	10	-20	HC	loss	loss2	21
92006	1035	2.796	1	4	-20	HC	loss	loss2	22
92006	1035	1.368	1	6	-20	HC	loss	loss2	23
92006	1035	1.742	1	8	-25	HC	loss	loss2	24
92006	1035	1.773	1	6	-25	HC	loss	loss2	25
92006	1035	4.635	1	10	-5	HC	loss	loss2	26
92006	1035	3.706	1	4	-10	HC	loss	loss2	27
92006	1035	2.96	1	6	-15	HC	loss	loss2	28
92006	1035	1.217	1	2	-20	HC	loss	loss2	29
92006	1035	0.892	1	2	-5	HC	loss	loss2	30
92006	1035	1.211	1	10	-15	HC	loss	loss2	31
92006	1035	2.206	1	10	-10	HC	loss	loss2	32
92006	1035	2.156	1	4	-5	HC	loss	loss2	33
92006	1035	0.966	1	6	-25	HC	loss	loss2	34
92006	1035	2.667	1	4	-25	HC	loss	loss2	35
92006	1035	3.857	1	8	-5	HC	loss	loss2	36
92006	1035	2.213	1	4	-15	HC	loss	loss2	37
92006	1035	2.315	1	8	-25	HC	loss	loss2	38
92006	1035	5.045	1	4	-20	HC	loss	loss2	39
92006	1035	3.205	1	2	-10	HC	loss	loss2	40
92006	1035	4.151	1	8	-10	HC	loss	loss2	41
92006	1035	2.577	1	6	-10	HC	loss	loss2	42
92006	1035	4.333	1	6	-5	HC	loss	loss2	43
92006	1035	4.445	1	10	-25	HC	loss	loss2	44
92006	1035	2.472	1	8	-15	HC	loss	loss2	45
92006	1035	1.9	0	8	-20	HC	loss	loss2	46
92006	1035	2.77	1	2	-25	HC	loss	loss2	47
92006	1035	1.073	1	10	-20	HC	loss	loss2	48
92006	1035	3.29	1	6	-20	HC	loss	loss2	49
92006	1035	0.851	1	2	-15	HC	loss	loss2	50
92008	1036	3.073	1	6	-25	HC	loss	loss2	1
92008	1036	1.024	1	6	-5	HC	loss	loss2	2
92008	1036	1.994	1	8	-5	HC	loss	loss2	3
92008	1036	2.044	1	8	-10	HC	loss	loss2	4
92008	1036	1.41	1	6	-10	HC	loss	loss2	5
92008	1036	1.908	1	2	-25	HC	loss	loss2	6
92008	1036	0.91	1	2	-10	HC	loss	loss2	7
92008	1036	3.909	1	10	-20	HC	loss	loss2	8
92008	1036	0.816	1	6	-20	HC	loss	loss2	9
92008	1036	1.168	1	8	-25	HC	loss	loss2	10
92008	1036	0.882	1	4	-10	HC	loss	loss2	11
92008	1036	1.114	1	4	-25	HC	loss	loss2	12
92008	1036	1.183	1	2	-5	HC	loss	loss2	13
92008	1036	2.423	1	10	-15	HC	loss	loss2	14
92008	1036	1.194	1	2	-15	HC	loss	loss2	15
92008	1036	1.707	1	10	-5	HC	loss	loss2	16
92008	1036	1.093	1	4	-5	HC	loss	loss2	17
92008	1036	1.337	1	4	-20	HC	loss	loss2	18
92008	1036	0.795	1	4	-15	HC	loss	loss2	19
92008	1036	1.074	1	2	-20	HC	loss	loss2	20
92008	1036	3.706	1	10	-25	HC	loss	loss2	21
92008	1036	0.862	1	8	-15	HC	loss	loss2	22
92008	1036	0.96	1	8	-20	HC	loss	loss2	23
92008	1036	1.325	1	10	-10	HC	loss	loss2	24
92008	1036	0.823	1	6	-15	HC	loss	loss2	25
92008	1036	2.436	1	2	-25	HC	loss	loss2	26
92008	1036	0.86	1	2	-10	HC	loss	loss2	27
92008	1036	0.85	1	4	-5	HC	loss	loss2	28
92008	1036	0.688	1	2	-20	HC	loss	loss2	29
92008	1036	1.263	1	10	-15	HC	loss	loss2	30
92008	1036	0.658	1	6	-25	HC	loss	loss2	31
92008	1036	1.128	1	6	-5	HC	loss	loss2	32
92008	1036	0.636	1	2	-5	HC	loss	loss2	33
92008	1036	1.253	1	10	-10	HC	loss	loss2	34
92008	1036	0.752	1	4	-20	HC	loss	loss2	35
92008	1036	0.759	1	8	-25	HC	loss	loss2	36
92008	1036	0.637	1	8	-15	HC	loss	loss2	37
92008	1036	3.533	1	10	-20	HC	loss	loss2	38
92008	1036	0.73	1	4	-25	HC	loss	loss2	39
92008	1036	1.206	1	10	-5	HC	loss	loss2	40
92008	1036	3.55	1	10	-25	HC	loss	loss2	41
92008	1036	0.658	1	8	-5	HC	loss	loss2	42
92008	1036	0.75	1	4	-10	HC	loss	loss2	43
92008	1036	0.711	1	6	-20	HC	loss	loss2	44
92008	1036	1.542	1	8	-10	HC	loss	loss2	45
92008	1036	0.536	1	8	-20	HC	loss	loss2	46
92008	1036	0.834	1	2	-15	HC	loss	loss2	47
92008	1036	0.84	1	6	-10	HC	loss	loss2	48
92008	1036	0.745	1	6	-15	HC	loss	loss2	49
92008	1036	0.849	1	4	-15	HC	loss	loss2	50
92009	1037	3.076	1	8	-15	HC	loss	loss2	1
92009	1037	1.607	1	2	-15	HC	loss	loss2	2
92009	1037	1.456	1	4	-20	HC	loss	loss2	3
92009	1037	3.032	1	10	-20	HC	loss	loss2	4
92009	1037	2.7	1	8	-5	HC	loss	loss2	5
92009	1037	1.572	0	10	-5	HC	loss	loss2	6
92009	1037	0.899	1	8	-10	HC	loss	loss2	7
92009	1037	1.439	1	6	-10	HC	loss	loss2	8
92009	1037	1.668	1	4	-5	HC	loss	loss2	9
92009	1037	3.024	1	10	-15	HC	loss	loss2	10
92009	1037	1.08	1	2	-10	HC	loss	loss2	11
92009	1037	1.991	1	10	-10	HC	loss	loss2	12
92009	1037	0.642	1	2	-5	HC	loss	loss2	13
92009	1037	0.89	1	2	-20	HC	loss	loss2	14
92009	1037	0.856	1	4	-10	HC	loss	loss2	15
92009	1037	1.257	1	8	-25	HC	loss	loss2	16
92009	1037	1.052	1	2	-25	HC	loss	loss2	17
92009	1037	1.661	0	10	-25	HC	loss	loss2	18
92009	1037	0.801	1	6	-15	HC	loss	loss2	19
92009	1037	1.195	1	4	-15	HC	loss	loss2	20
92009	1037	0.401	1	6	-5	HC	loss	loss2	21
92009	1037	0.238	1	6	-20	HC	loss	loss2	22
92009	1037	0.276	1	6	-25	HC	loss	loss2	23
92009	1037	0.525	1	4	-25	HC	loss	loss2	24
92009	1037	0.277	1	8	-20	HC	loss	loss2	25
92009	1037	0.757	1	10	-20	HC	loss	loss2	26
92009	1037	1.005	1	4	-25	HC	loss	loss2	27
92009	1037	0.607	1	2	-10	HC	loss	loss2	28
92009	1037	0.334	1	2	-20	HC	loss	loss2	29
92009	1037	0.65	1	10	-15	HC	loss	loss2	30
92009	1037	0.631	1	8	-15	HC	loss	loss2	31
92009	1037	0.294	1	6	-10	HC	loss	loss2	32
92009	1037	0.671	1	4	-10	HC	loss	loss2	33
92009	1037	0.463	1	6	-5	HC	loss	loss2	34
92009	1037	0.444	1	6	-20	HC	loss	loss2	35
92009	1037	0.296	1	8	-20	HC	loss	loss2	36
92009	1037	0.018	1	4	-15	HC	loss	loss2	37
92009	1037	0.413	1	2	-25	HC	loss	loss2	38
92009	1037	0.258	1	6	-25	HC	loss	loss2	39
92009	1037	0.561	1	2	-15	HC	loss	loss2	40
92009	1037	1.725	1	10	-25	HC	loss	loss2	41
92009	1037	0.625	1	2	-5	HC	loss	loss2	42
92009	1037	0.517	1	10	-10	HC	loss	loss2	43
92009	1037	0.677	1	8	-25	HC	loss	loss2	44
92009	1037	0.626	1	8	-5	HC	loss	loss2	45
92009	1037	0.504	1	4	-20	HC	loss	loss2	46
92009	1037	1.176	1	8	-10	HC	loss	loss2	47
92009	1037	0.438	1	10	-5	HC	loss	loss2	48
92009	1037	0.593	1	6	-15	HC	loss	loss2	49
92009	1037	0.385	1	4	-5	HC	loss	loss2	50
92011	1038	5.285	1	2	-10	HC	loss	loss2	1
92011	1038	1.238	1	4	-25	HC	loss	loss2	2
92011	1038	0.942	1	8	-15	HC	loss	loss2	3
92011	1038	0.832	1	2	-20	HC	loss	loss2	4
92011	1038	0.947	1	10	-25	HC	loss	loss2	5
92011	1038	0.829	1	6	-25	HC	loss	loss2	6
92011	1038	0.953	1	10	-15	HC	loss	loss2	7
92011	1038	0.634	1	8	-25	HC	loss	loss2	8
92011	1038	0.871	1	6	-10	HC	loss	loss2	9
92011	1038	0.957	1	8	-10	HC	loss	loss2	10
92011	1038	0.957	1	4	-10	HC	loss	loss2	11
92011	1038	0.841	1	8	-20	HC	loss	loss2	12
92011	1038	0.804	1	6	-20	HC	loss	loss2	13
92011	1038	0.519	1	4	-5	HC	loss	loss2	14
92011	1038	0.75	1	6	-15	HC	loss	loss2	15
92011	1038	0.791	1	2	-25	HC	loss	loss2	16
92011	1038	0.908	1	2	-15	HC	loss	loss2	17
92011	1038	3.396	1	10	-5	HC	loss	loss2	18
92011	1038	0.874	1	6	-5	HC	loss	loss2	19
92011	1038	0.852	1	4	-20	HC	loss	loss2	20
92011	1038	1.217	1	10	-10	HC	loss	loss2	21
92011	1038	0.856	1	2	-5	HC	loss	loss2	22
92011	1038	0.852	1	4	-15	HC	loss	loss2	23
92011	1038	0.686	1	8	-5	HC	loss	loss2	24
92011	1038	0.591	1	10	-20	HC	loss	loss2	25
92011	1038	0.987	1	10	-10	HC	loss	loss2	26
92011	1038	0.886	1	8	-25	HC	loss	loss2	27
92011	1038	0.687	1	2	-5	HC	loss	loss2	28
92011	1038	0.721	1	8	-20	HC	loss	loss2	29
92011	1038	1.013	1	6	-25	HC	loss	loss2	30
92011	1038	1.09	1	4	-10	HC	loss	loss2	31
92011	1038	0.657	1	10	-20	HC	loss	loss2	32
92011	1038	0.781	1	6	-10	HC	loss	loss2	33
92011	1038	0.676	1	10	-15	HC	loss	loss2	34
92011	1038	0.681	1	2	-15	HC	loss	loss2	35
92011	1038	0.677	1	8	-15	HC	loss	loss2	36
92011	1038	0.657	1	4	-25	HC	loss	loss2	37
92011	1038	0.821	1	10	-5	HC	loss	loss2	38
92011	1038	0.831	1	2	-10	HC	loss	loss2	39
92011	1038	0.856	1	10	-25	HC	loss	loss2	40
92011	1038	1.079	1	6	-15	HC	loss	loss2	41
92011	1038	0.747	1	8	-10	HC	loss	loss2	42
92011	1038	1.002	1	4	-5	HC	loss	loss2	43
92011	1038	0.695	1	2	-20	HC	loss	loss2	44
92011	1038	0.893	1	6	-20	HC	loss	loss2	45
92011	1038	0.63	1	8	-5	HC	loss	loss2	46
92011	1038	0.879	1	6	-5	HC	loss	loss2	47
92011	1038	0.795	1	4	-20	HC	loss	loss2	48
92011	1038	0.634	1	2	-25	HC	loss	loss2	49
92011	1038	0.632	1	4	-15	HC	loss	loss2	50
92013	1039	5.743	1	8	-25	HC	loss	loss2	1
92013	1039	5.805	1	10	-20	HC	loss	loss2	2
92013	1039	1.379	1	10	-10	HC	loss	loss2	3
92013	1039	1.225	1	6	-25	HC	loss	loss2	4
92013	1039	1.283	1	6	-15	HC	loss	loss2	5
92013	1039	0.744	1	4	-15	HC	loss	loss2	6
92013	1039	1.286	1	8	-10	HC	loss	loss2	7
92013	1039	7.184	1	8	-15	HC	loss	loss2	8
92013	1039	2.165	1	2	-25	HC	loss	loss2	9
92013	1039	1.261	1	2	-20	HC	loss	loss2	10
92013	1039	1.07	1	6	-20	HC	loss	loss2	11
92013	1039	0.993	1	2	-15	HC	loss	loss2	12
92013	1039	0.73	1	6	-5	HC	loss	loss2	13
92013	1039	0.593	1	8	-20	HC	loss	loss2	14
92013	1039	0.576	1	2	-10	HC	loss	loss2	15
92013	1039	3.241	1	4	-5	HC	loss	loss2	16
92013	1039	1.059	1	4	-10	HC	loss	loss2	17
92013	1039	2.835	1	4	-20	HC	loss	loss2	18
92013	1039	16.249	1	8	-5	HC	loss	loss2	19
92013	1039	1.766	0	10	-15	HC	loss	loss2	20
92013	1039	1.739	1	2	-5	HC	loss	loss2	21
92013	1039	5.822	1	6	-10	HC	loss	loss2	22
92013	1039	6.154	1	10	-25	HC	loss	loss2	23
92013	1039	1.828	1	4	-25	HC	loss	loss2	24
92013	1039	1.535	0	10	-5	HC	loss	loss2	25
92013	1039	1.906	0	8	-25	HC	loss	loss2	26
92013	1039	6.114	1	8	-20	HC	loss	loss2	27
92013	1039	1.428	1	10	-20	HC	loss	loss2	28
92013	1039	1.674	1	6	-15	HC	loss	loss2	29
92013	1039	0.888	1	10	-15	HC	loss	loss2	30
92013	1039	1.446	1	10	-25	HC	loss	loss2	31
92013	1039	1.064	1	4	-25	HC	loss	loss2	32
92013	1039	0.806	1	4	-10	HC	loss	loss2	33
92013	1039	0.819	1	2	-10	HC	loss	loss2	34
92013	1039	0.688	1	6	-25	HC	loss	loss2	35
92013	1039	0.913	1	4	-5	HC	loss	loss2	36
92013	1039	0.594	1	4	-20	HC	loss	loss2	37
92013	1039	1.747	0	10	-10	HC	loss	loss2	38
92013	1039	2.03	1	2	-5	HC	loss	loss2	39
92013	1039	1.932	1	2	-20	HC	loss	loss2	40
92013	1039	3.494	1	6	-5	HC	loss	loss2	41
92013	1039	1.557	1	2	-15	HC	loss	loss2	42
92013	1039	1.462	1	8	-10	HC	loss	loss2	43
92013	1039	1.58	0	8	-5	HC	loss	loss2	44
92013	1039	1.736	1	8	-15	HC	loss	loss2	45
92013	1039	0.94	1	6	-10	HC	loss	loss2	46
92013	1039	1.016	1	4	-15	HC	loss	loss2	47
92013	1039	2.62	1	6	-20	HC	loss	loss2	48
92013	1039	4.619	1	2	-25	HC	loss	loss2	49
92013	1039	1.53	0	10	-5	HC	loss	loss2	50
92014	1040	7.447	1	6	-20	HC	loss	loss2	1
92014	1040	2.25	1	8	-20	HC	loss	loss2	2
92014	1040	3.619	1	10	-15	HC	loss	loss2	3
92014	1040	3.114	1	10	-10	HC	loss	loss2	4
92014	1040	1.408	1	2	-10	HC	loss	loss2	5
92014	1040	1.524	1	4	-5	HC	loss	loss2	6
92014	1040	1.465	1	4	-25	HC	loss	loss2	7
92014	1040	1.768	1	6	-5	HC	loss	loss2	8
92014	1040	1.211	1	2	-25	HC	loss	loss2	9
92014	1040	1.757	1	8	-25	HC	loss	loss2	10
92014	1040	1.096	1	4	-10	HC	loss	loss2	11
92014	1040	3.023	1	10	-5	HC	loss	loss2	12
92014	1040	2.826	1	2	-20	HC	loss	loss2	13
92014	1040	2.399	1	10	-20	HC	loss	loss2	14
92014	1040	1.136	1	6	-15	HC	loss	loss2	15
92014	1040	2.172	1	8	-15	HC	loss	loss2	16
92014	1040	3.49	1	10	-25	HC	loss	loss2	17
92014	1040	0.882	1	2	-15	HC	loss	loss2	18
92014	1040	0.899	1	2	-5	HC	loss	loss2	19
92014	1040	1.998	1	8	-5	HC	loss	loss2	20
92014	1040	1.033	1	6	-25	HC	loss	loss2	21
92014	1040	0.991	1	4	-15	HC	loss	loss2	22
92014	1040	3.263	1	4	-20	HC	loss	loss2	23
92014	1040	1.362	1	8	-10	HC	loss	loss2	24
92014	1040	2.237	1	6	-10	HC	loss	loss2	25
92014	1040	1.417	1	10	-10	HC	loss	loss2	26
92014	1040	1.493	1	6	-25	HC	loss	loss2	27
92014	1040	2.498	1	6	-20	HC	loss	loss2	28
92014	1040	0.83	1	8	-15	HC	loss	loss2	29
92014	1040	0.874	1	8	-25	HC	loss	loss2	30
92014	1040	1.359	1	10	-20	HC	loss	loss2	31
92014	1040	1.264	1	8	-10	HC	loss	loss2	32
92014	1040	0.755	1	4	-20	HC	loss	loss2	33
92014	1040	0.768	1	2	-5	HC	loss	loss2	34
92014	1040	0.8	1	2	-10	HC	loss	loss2	35
92014	1040	0.954	1	2	-25	HC	loss	loss2	36
92014	1040	1.107	1	6	-5	HC	loss	loss2	37
92014	1040	0.936	1	2	-15	HC	loss	loss2	38
92014	1040	5.484	1	10	-5	HC	loss	loss2	39
92014	1040	1.175	1	4	-5	HC	loss	loss2	40
92014	1040	1.043	1	6	-10	HC	loss	loss2	41
92014	1040	1.089	1	8	-5	HC	loss	loss2	42
92014	1040	2.322	1	10	-25	HC	loss	loss2	43
92014	1040	1.083	1	8	-20	HC	loss	loss2	44
92014	1040	0.856	1	6	-15	HC	loss	loss2	45
92014	1040	0.905	1	4	-10	HC	loss	loss2	46
92014	1040	0.54	1	10	-15	HC	loss	loss2	47
92014	1040	0.911	1	4	-25	HC	loss	loss2	48
92014	1040	20.556	1	2	-20	HC	loss	loss2	49
92014	1040	2.051	1	4	-15	HC	loss	loss2	50
92016	1041	3.057	1	2	-5	HC	loss	loss2	1
92016	1041	3.132	1	6	-5	HC	loss	loss2	2
92016	1041	1.787	1	10	-20	HC	loss	loss2	3
92016	1041	0.783	1	8	-20	HC	loss	loss2	4
92016	1041	0.364	1	2	-25	HC	loss	loss2	5
92016	1041	1.345	1	8	-10	HC	loss	loss2	6
92016	1041	1.443	1	10	-25	HC	loss	loss2	7
92016	1041	0.593	1	2	-10	HC	loss	loss2	8
92016	1041	0.729	1	4	-5	HC	loss	loss2	9
92016	1041	1.73	1	10	-15	HC	loss	loss2	10
92016	1041	0.952	1	4	-25	HC	loss	loss2	11
92016	1041	1.298	1	10	-10	HC	loss	loss2	12
92016	1041	2.494	0	8	-5	HC	loss	loss2	13
92016	1041	1.434	1	2	-20	HC	loss	loss2	14
92016	1041	1.192	1	4	-20	HC	loss	loss2	15
92016	1041	2.639	1	6	-10	HC	loss	loss2	16
92016	1041	1.845	1	6	-25	HC	loss	loss2	17
92016	1041	0.488	1	2	-15	HC	loss	loss2	18
92016	1041	4.155	1	8	-15	HC	loss	loss2	19
92016	1041	0.082	1	4	-10	HC	loss	loss2	20
92016	1041	0.141	1	4	-15	HC	loss	loss2	21
92016	1041	1.356	1	6	-20	HC	loss	loss2	22
92016	1041	0.388	1	8	-25	HC	loss	loss2	23
92016	1041	1.433	0	10	-5	HC	loss	loss2	24
92016	1041	1.784	1	6	-15	HC	loss	loss2	25
92016	1041	2.459	1	4	-5	HC	loss	loss2	26
92016	1041	2.074	1	6	-15	HC	loss	loss2	27
92016	1041	1.213	1	2	-25	HC	loss	loss2	28
92016	1041	1.721	0	8	-5	HC	loss	loss2	29
92016	1041	2.868	1	8	-25	HC	loss	loss2	30
92016	1041	0.884	1	10	-15	HC	loss	loss2	31
92016	1041	1.204	1	2	-5	HC	loss	loss2	32
92016	1041	0.887	1	2	-20	HC	loss	loss2	33
92016	1041	0.495	1	10	-25	HC	loss	loss2	34
92016	1041	0.983	1	4	-10	HC	loss	loss2	35
92016	1041	0.865	1	4	-15	HC	loss	loss2	36
92016	1041	2.46	1	8	-15	HC	loss	loss2	37
92016	1041	1.588	1	6	-10	HC	loss	loss2	38
92016	1041	1.818	0	10	-5	HC	loss	loss2	39
92016	1041	1.809	1	4	-25	HC	loss	loss2	40
92016	1041	1.555	1	6	-25	HC	loss	loss2	41
92016	1041	3.105	1	8	-20	HC	loss	loss2	42
92016	1041	1.349	1	4	-20	HC	loss	loss2	43
92016	1041	0.896	1	8	-10	HC	loss	loss2	44
92016	1041	1.151	1	2	-15	HC	loss	loss2	45
92016	1041	1.035	1	2	-10	HC	loss	loss2	46
92016	1041	0.734	1	6	-20	HC	loss	loss2	47
92016	1041	1.563	0	10	-10	HC	loss	loss2	48
92016	1041	1.827	0	6	-5	HC	loss	loss2	49
92016	1041	3.236	1	10	-20	HC	loss	loss2	50
92018	1042	4.452	1	4	-20	HC	loss	loss2	1
92018	1042	1.694	1	2	-10	HC	loss	loss2	2
92018	1042	2.212	1	6	-10	HC	loss	loss2	3
92018	1042	2.36	1	10	-5	HC	loss	loss2	4
92018	1042	1.323	1	8	-10	HC	loss	loss2	5
92018	1042	1.135	1	2	-15	HC	loss	loss2	6
92018	1042	1.076	1	8	-20	HC	loss	loss2	7
92018	1042	0.934	1	4	-15	HC	loss	loss2	8
92018	1042	1.518	1	6	-5	HC	loss	loss2	9
92018	1042	1.336	1	10	-15	HC	loss	loss2	10
92018	1042	1.182	1	4	-25	HC	loss	loss2	11
92018	1042	1.549	1	10	-20	HC	loss	loss2	12
92018	1042	0.993	1	4	-5	HC	loss	loss2	13
92018	1042	1.45	1	10	-10	HC	loss	loss2	14
92018	1042	1.03	1	6	-25	HC	loss	loss2	15
92018	1042	1.056	1	2	-25	HC	loss	loss2	16
92018	1042	0.742	1	2	-20	HC	loss	loss2	17
92018	1042	2.845	1	8	-5	HC	loss	loss2	18
92018	1042	1.407	1	4	-10	HC	loss	loss2	19
92018	1042	1.33	1	6	-15	HC	loss	loss2	20
92018	1042	1.387	1	10	-25	HC	loss	loss2	21
92018	1042	1.18	1	2	-5	HC	loss	loss2	22
92018	1042	1.319	1	6	-20	HC	loss	loss2	23
92018	1042	1.376	1	8	-25	HC	loss	loss2	24
92018	1042	1.417	1	8	-15	HC	loss	loss2	25
92018	1042	1.12	1	4	-5	HC	loss	loss2	26
92018	1042	1.397	1	2	-25	HC	loss	loss2	27
92018	1042	1.37	1	6	-5	HC	loss	loss2	28
92018	1042	0.894	1	6	-10	HC	loss	loss2	29
92018	1042	1.192	1	8	-15	HC	loss	loss2	30
92018	1042	1.188	1	2	-15	HC	loss	loss2	31
92018	1042	0.678	1	2	-10	HC	loss	loss2	32
92018	1042	2.454	1	10	-15	HC	loss	loss2	33
92018	1042	1.143	1	4	-10	HC	loss	loss2	34
92018	1042	4.643	1	10	-20	HC	loss	loss2	35
92018	1042	1.165	1	8	-10	HC	loss	loss2	36
92018	1042	1.338	1	4	-25	HC	loss	loss2	37
92018	1042	1.647	1	4	-20	HC	loss	loss2	38
92018	1042	1.562	1	10	-10	HC	loss	loss2	39
92018	1042	0.9	1	10	-25	HC	loss	loss2	40
92018	1042	1.602	1	6	-25	HC	loss	loss2	41
92018	1042	0.765	1	2	-20	HC	loss	loss2	42
92018	1042	1.668	1	8	-25	HC	loss	loss2	43
92018	1042	1.139	1	8	-5	HC	loss	loss2	44
92018	1042	1.225	1	8	-20	HC	loss	loss2	45
92018	1042	1.427	1	4	-15	HC	loss	loss2	46
92018	1042	0.713	1	2	-5	HC	loss	loss2	47
92018	1042	0.581	1	6	-15	HC	loss	loss2	48
92018	1042	1.139	1	6	-20	HC	loss	loss2	49
92018	1042	2.815	1	10	-5	HC	loss	loss2	50
92020	1043	7.529	1	4	-10	HC	loss	loss2	1
92020	1043	1.379	1	2	-20	HC	loss	loss2	2
92020	1043	0.332	1	4	-20	HC	loss	loss2	3
92020	1043	0.403	1	4	-15	HC	loss	loss2	4
92020	1043	0.679	1	10	-20	HC	loss	loss2	5
92020	1043	0.702	1	6	-20	HC	loss	loss2	6
92020	1043	0.532	1	2	-10	HC	loss	loss2	7
92020	1043	0.179	1	10	-5	HC	loss	loss2	8
92020	1043	0.764	1	6	-10	HC	loss	loss2	9
92020	1043	0.335	1	2	-5	HC	loss	loss2	10
92020	1043	0.276	1	6	-15	HC	loss	loss2	11
92020	1043	0.252	1	4	-5	HC	loss	loss2	12
92020	1043	0.322	1	8	-15	HC	loss	loss2	13
92020	1043	0.632	1	6	-25	HC	loss	loss2	14
92020	1043	0.602	1	4	-25	HC	loss	loss2	15
92020	1043	0.628	1	8	-10	HC	loss	loss2	16
92020	1043	0.328	1	10	-10	HC	loss	loss2	17
92020	1043	0.411	1	8	-5	HC	loss	loss2	18
92020	1043	0.715	1	2	-15	HC	loss	loss2	19
92020	1043	0.58	1	6	-5	HC	loss	loss2	20
92020	1043	0.534	1	8	-20	HC	loss	loss2	21
92020	1043	0.55	1	10	-15	HC	loss	loss2	22
92020	1043	0.484	1	10	-25	HC	loss	loss2	23
92020	1043	0.279	1	8	-25	HC	loss	loss2	24
92020	1043	0.443	1	2	-25	HC	loss	loss2	25
92020	1043	0.653	1	6	-25	HC	loss	loss2	26
92020	1043	0.471	1	4	-10	HC	loss	loss2	27
92020	1043	0.436	1	2	-15	HC	loss	loss2	28
92020	1043	0.259	1	10	-15	HC	loss	loss2	29
92020	1043	0.388	1	8	-10	HC	loss	loss2	30
92020	1043	0.356	1	4	-20	HC	loss	loss2	31
92020	1043	0.318	1	8	-5	HC	loss	loss2	32
92020	1043	0.235	1	8	-15	HC	loss	loss2	33
92020	1043	0.434	1	2	-10	HC	loss	loss2	34
92020	1043	0.423	1	4	-25	HC	loss	loss2	35
92020	1043	0.218	1	4	-5	HC	loss	loss2	36
92020	1043	0.172	1	6	-20	HC	loss	loss2	37
92020	1043	0.361	1	2	-5	HC	loss	loss2	38
92020	1043	0.191	1	2	-20	HC	loss	loss2	39
92020	1043	0.24	1	10	-25	HC	loss	loss2	40
92020	1043	0.642	1	10	-20	HC	loss	loss2	41
92020	1043	0.37	1	10	-5	HC	loss	loss2	42
92020	1043	0.324	1	6	-15	HC	loss	loss2	43
92020	1043	0.214	1	4	-15	HC	loss	loss2	44
92020	1043	0.41	1	6	-5	HC	loss	loss2	45
92020	1043	0.444	1	6	-10	HC	loss	loss2	46
92020	1043	0.24	1	8	-25	HC	loss	loss2	47
92020	1043	0.7	1	2	-25	HC	loss	loss2	48
92020	1043	0.475	1	8	-20	HC	loss	loss2	49
92020	1043	0.456	1	10	-10	HC	loss	loss2	50
92027	1044	1.866	1	6	-5	HC	loss	loss2	1
92027	1044	1.145	1	6	-20	HC	loss	loss2	2
92027	1044	1.066	1	4	-15	HC	loss	loss2	3
92027	1044	0.668	1	10	-15	HC	loss	loss2	4
92027	1044	1.03	1	8	-15	HC	loss	loss2	5
92027	1044	0.823	1	10	-25	HC	loss	loss2	6
92027	1044	0.788	1	6	-15	HC	loss	loss2	7
92027	1044	1.223	1	10	-20	HC	loss	loss2	8
92027	1044	1.137	1	2	-10	HC	loss	loss2	9
92027	1044	0.889	1	6	-25	HC	loss	loss2	10
92027	1044	0.885	1	2	-20	HC	loss	loss2	11
92027	1044	0.744	1	4	-10	HC	loss	loss2	12
92027	1044	0.572	1	2	-15	HC	loss	loss2	13
92027	1044	0.71	1	6	-10	HC	loss	loss2	14
92027	1044	0.643	1	2	-5	HC	loss	loss2	15
92027	1044	0.66	1	2	-25	HC	loss	loss2	16
92027	1044	0.719	1	8	-20	HC	loss	loss2	17
92027	1044	0.564	1	8	-25	HC	loss	loss2	18
92027	1044	0.599	1	4	-20	HC	loss	loss2	19
92027	1044	0.784	1	10	-10	HC	loss	loss2	20
92027	1044	1.149	1	8	-5	HC	loss	loss2	21
92027	1044	0.985	1	8	-10	HC	loss	loss2	22
92027	1044	0.627	1	4	-25	HC	loss	loss2	23
92027	1044	1.073	1	10	-5	HC	loss	loss2	24
92027	1044	0.664	1	4	-5	HC	loss	loss2	25
92027	1044	1.593	1	10	-15	HC	loss	loss2	26
92027	1044	0.67	1	4	-15	HC	loss	loss2	27
92027	1044	0.626	1	6	-25	HC	loss	loss2	28
92027	1044	1.1	1	10	-5	HC	loss	loss2	29
92027	1044	0.718	1	6	-15	HC	loss	loss2	30
92027	1044	0.846	1	2	-5	HC	loss	loss2	31
92027	1044	0.668	1	2	-20	HC	loss	loss2	32
92027	1044	0.881	1	10	-10	HC	loss	loss2	33
92027	1044	0.595	1	6	-5	HC	loss	loss2	34
92027	1044	0.837	1	10	-25	HC	loss	loss2	35
92027	1044	0.879	1	8	-25	HC	loss	loss2	36
92027	1044	0.772	1	2	-10	HC	loss	loss2	37
92027	1044	1.413	1	2	-25	HC	loss	loss2	38
92027	1044	0.919	1	8	-5	HC	loss	loss2	39
92027	1044	0.733	1	4	-5	HC	loss	loss2	40
92027	1044	0.62	1	4	-10	HC	loss	loss2	41
92027	1044	0.586	1	8	-15	HC	loss	loss2	42
92027	1044	1.082	1	10	-20	HC	loss	loss2	43
92027	1044	1.476	1	4	-20	HC	loss	loss2	44
92027	1044	0.619	1	2	-15	HC	loss	loss2	45
92027	1044	0.623	1	4	-25	HC	loss	loss2	46
92027	1044	0.598	1	6	-10	HC	loss	loss2	47
92027	1044	0.541	1	8	-10	HC	loss	loss2	48
92027	1044	0.461	1	8	-20	HC	loss	loss2	49
92027	1044	0.679	1	6	-20	HC	loss	loss2	50
92046	1045	4.094	1	8	-15	HC	loss	loss2	1
92046	1045	1.47	1	10	-20	HC	loss	loss2	2
92046	1045	1.128	1	4	-25	HC	loss	loss2	3
92046	1045	1.071	1	2	-25	HC	loss	loss2	4
92046	1045	2.054	1	6	-15	HC	loss	loss2	5
92046	1045	1.542	0	10	-10	HC	loss	loss2	6
92046	1045	1.585	1	4	-5	HC	loss	loss2	7
92046	1045	1.898	1	6	-20	HC	loss	loss2	8
92046	1045	1.217	1	2	-10	HC	loss	loss2	9
92046	1045	4.901	1	6	-10	HC	loss	loss2	10
92046	1045	1.231	1	8	-20	HC	loss	loss2	11
92046	1045	2.885	0	10	-15	HC	loss	loss2	12
92046	1045	3.04	1	6	-25	HC	loss	loss2	13
92046	1045	1.611	1	10	-25	HC	loss	loss2	14
92046	1045	2.281	1	4	-20	HC	loss	loss2	15
92046	1045	2.145	1	4	-10	HC	loss	loss2	16
92046	1045	1.03	1	2	-15	HC	loss	loss2	17
92046	1045	1.192	1	4	-15	HC	loss	loss2	18
92046	1045	1.478	0	8	-10	HC	loss	loss2	19
92046	1045	1.638	0	10	-5	HC	loss	loss2	20
92046	1045	4.302	1	2	-5	HC	loss	loss2	21
92046	1045	7.188	0	6	-5	HC	loss	loss2	22
92046	1045	1.649	1	8	-25	HC	loss	loss2	23
92046	1045	1.763	1	2	-20	HC	loss	loss2	24
92046	1045	2.517	0	8	-5	HC	loss	loss2	25
92046	1045	2.395	1	2	-5	HC	loss	loss2	26
92046	1045	3.633	1	8	-20	HC	loss	loss2	27
92046	1045	2.514	0	8	-10	HC	loss	loss2	28
92046	1045	1.304	0	10	-5	HC	loss	loss2	29
92046	1045	3.592	0	10	-15	HC	loss	loss2	30
92046	1045	1.514	1	4	-15	HC	loss	loss2	31
92046	1045	1.44	1	6	-25	HC	loss	loss2	32
92046	1045	2.671	1	8	-15	HC	loss	loss2	33
92046	1045	1.244	0	4	-5	HC	loss	loss2	34
92046	1045	1.559	0	10	-20	HC	loss	loss2	35
92046	1045	1.896	1	8	-25	HC	loss	loss2	36
92046	1045	1.064	1	2	-15	HC	loss	loss2	37
92046	1045	1.559	0	6	-5	HC	loss	loss2	38
92046	1045	1.486	1	6	-15	HC	loss	loss2	39
92046	1045	1.48	1	10	-25	HC	loss	loss2	40
92046	1045	0.976	1	2	-20	HC	loss	loss2	41
92046	1045	1.321	1	6	-20	HC	loss	loss2	42
92046	1045	1.631	1	4	-10	HC	loss	loss2	43
92046	1045	0.805	1	4	-25	HC	loss	loss2	44
92046	1045	1.401	0	10	-10	HC	loss	loss2	45
92046	1045	0.852	1	2	-25	HC	loss	loss2	46
92046	1045	2.126	0	6	-10	HC	loss	loss2	47
92046	1045	1.354	0	8	-5	HC	loss	loss2	48
92046	1045	1.028	1	2	-10	HC	loss	loss2	49
92046	1045	1.001	1	4	-20	HC	loss	loss2	50
