rawID	subjID	rt	choice	effort	reward	group	framework	group_framework	trials
1	1001	11.627	1	2	-25	PA	loss	loss1	1
1	1001	1.442	0	8	-5	PA	loss	loss1	2
1	1001	1.684	0	10	-10	PA	loss	loss1	3
1	1001	3.683	0	8	-15	PA	loss	loss1	4
1	1001	1.807	1	2	-5	PA	loss	loss1	5
1	1001	1.655	0	10	-5	PA	loss	loss1	6
1	1001	1.581	0	6	-5	PA	loss	loss1	7
1	1001	2.688	1	8	-20	PA	loss	loss1	8
1	1001	2.213	1	4	-10	PA	loss	loss1	9
1	1001	1.478	1	4	-20	PA	loss	loss1	10
1	1001	1.669	0	10	-20	PA	loss	loss1	11
1	1001	2.059	0	8	-10	PA	loss	loss1	12
1	1001	1.545	1	2	-20	PA	loss	loss1	13
1	1001	4.081	1	6	-25	PA	loss	loss1	14
1	1001	1.428	1	4	-25	PA	loss	loss1	15
1	1001	2.353	1	6	-20	PA	loss	loss1	16
1	1001	2.271	1	8	-25	PA	loss	loss1	17
1	1001	1.772	0	4	-15	PA	loss	loss1	18
1	1001	1.639	0	6	-10	PA	loss	loss1	19
1	1001	1.433	0	4	-5	PA	loss	loss1	20
1	1001	2.323	0	10	-15	PA	loss	loss1	21
1	1001	2.099	1	2	-15	PA	loss	loss1	22
1	1001	3.802	0	6	-15	PA	loss	loss1	23
1	1001	2.002	1	2	-10	PA	loss	loss1	24
1	1001	3.956	1	10	-25	PA	loss	loss1	25
1	1001	1.507	1	2	-25	PA	loss	loss1	26
1	1001	1.966	0	6	-5	PA	loss	loss1	27
1	1001	1.859	1	4	-15	PA	loss	loss1	28
1	1001	1.734	1	2	-15	PA	loss	loss1	29
1	1001	1.607	0	10	-15	PA	loss	loss1	30
1	1001	1.888	1	6	-20	PA	loss	loss1	31
1	1001	2.369	1	2	-5	PA	loss	loss1	32
1	1001	2.289	1	2	-20	PA	loss	loss1	33
1	1001	2.871	0	6	-10	PA	loss	loss1	34
1	1001	1.361	0	8	-5	PA	loss	loss1	35
1	1001	2.277	0	10	-20	PA	loss	loss1	36
1	1001	2.125	0	4	-5	PA	loss	loss1	37
1	1001	2.79	0	6	-15	PA	loss	loss1	38
1	1001	1.733	1	4	-25	PA	loss	loss1	39
1	1001	3.583	1	8	-25	PA	loss	loss1	40
1	1001	1.879	1	4	-10	PA	loss	loss1	41
1	1001	2.393	0	8	-15	PA	loss	loss1	42
1	1001	3.916	1	10	-25	PA	loss	loss1	43
1	1001	2.821	1	4	-20	PA	loss	loss1	44
1	1001	6.189	0	8	-10	PA	loss	loss1	45
1	1001	4.867	1	6	-25	PA	loss	loss1	46
1	1001	3.024	1	8	-20	PA	loss	loss1	47
1	1001	2.847	0	2	-10	PA	loss	loss1	48
1	1001	3.446	0	10	-5	PA	loss	loss1	49
1	1001	2.482	0	10	-10	PA	loss	loss1	50
3	1002	7	0	10	-25	PA	loss	loss1	1
3	1002	3.303	1	6	-15	PA	loss	loss1	2
3	1002	2.156	1	8	-10	PA	loss	loss1	3
3	1002	1.724	1	4	-15	PA	loss	loss1	4
3	1002	1.845	1	4	-25	PA	loss	loss1	5
3	1002	2.275	1	8	-20	PA	loss	loss1	6
3	1002	1.099	1	2	-25	PA	loss	loss1	7
3	1002	1.03	1	4	-10	PA	loss	loss1	8
3	1002	1.956	0	8	-5	PA	loss	loss1	9
3	1002	1.072	1	2	-10	PA	loss	loss1	10
3	1002	1.415	0	10	-20	PA	loss	loss1	11
3	1002	1.237	1	2	-15	PA	loss	loss1	12
3	1002	1.084	1	2	-5	PA	loss	loss1	13
3	1002	1.433	1	6	-25	PA	loss	loss1	14
3	1002	1.066	0	10	-15	PA	loss	loss1	15
3	1002	1.632	1	4	-20	PA	loss	loss1	16
3	1002	1.821	1	4	-5	PA	loss	loss1	17
3	1002	1.141	0	10	-10	PA	loss	loss1	18
3	1002	9.247	1	6	-5	PA	loss	loss1	19
3	1002	1.187	1	2	-20	PA	loss	loss1	20
3	1002	3.079	1	8	-25	PA	loss	loss1	21
3	1002	1.503	1	6	-10	PA	loss	loss1	22
3	1002	0.944	0	10	-5	PA	loss	loss1	23
3	1002	1.457	1	6	-20	PA	loss	loss1	24
3	1002	2.009	0	8	-15	PA	loss	loss1	25
3	1002	1.125	1	2	-10	PA	loss	loss1	26
3	1002	0.961	1	2	-5	PA	loss	loss1	27
3	1002	1.367	0	8	-5	PA	loss	loss1	28
3	1002	1.701	0	10	-5	PA	loss	loss1	29
3	1002	0.898	0	10	-10	PA	loss	loss1	30
3	1002	1.309	1	4	-5	PA	loss	loss1	31
3	1002	7.349	1	10	-20	PA	loss	loss1	32
3	1002	2.019	1	6	-10	PA	loss	loss1	33
3	1002	1.616	1	4	-25	PA	loss	loss1	34
3	1002	0.969	1	2	-20	PA	loss	loss1	35
3	1002	3.2	0	6	-5	PA	loss	loss1	36
3	1002	2.598	1	6	-20	PA	loss	loss1	37
3	1002	1.25	1	2	-15	PA	loss	loss1	38
3	1002	1.1	1	4	-20	PA	loss	loss1	39
3	1002	1.059	0	10	-25	PA	loss	loss1	40
3	1002	2.999	0	8	-25	PA	loss	loss1	41
3	1002	1.225	1	4	-10	PA	loss	loss1	42
3	1002	1.135	1	6	-25	PA	loss	loss1	43
3	1002	1.031	1	4	-15	PA	loss	loss1	44
3	1002	0.96	0	8	-10	PA	loss	loss1	45
3	1002	0.854	0	10	-15	PA	loss	loss1	46
3	1002	2.224	1	8	-15	PA	loss	loss1	47
3	1002	1.279	1	6	-15	PA	loss	loss1	48
3	1002	0.911	1	2	-25	PA	loss	loss1	49
3	1002	4.157	1	8	-20	PA	loss	loss1	50
7	1003	4.439	1	2	-10	PA	loss	loss1	1
7	1003	1.144	1	4	-15	PA	loss	loss1	2
7	1003	1.305	1	4	-10	PA	loss	loss1	3
7	1003	1.04	1	2	-20	PA	loss	loss1	4
7	1003	2.919	1	10	-25	PA	loss	loss1	5
7	1003	4.163	0	6	-5	PA	loss	loss1	6
7	1003	1.055	1	6	-10	PA	loss	loss1	7
7	1003	1.618	1	4	-20	PA	loss	loss1	8
7	1003	1.606	1	6	-15	PA	loss	loss1	9
7	1003	1.109	1	4	-25	PA	loss	loss1	10
7	1003	0.955	0	10	-5	PA	loss	loss1	11
7	1003	4.048	0	8	-10	PA	loss	loss1	12
7	1003	1.133	1	2	-5	PA	loss	loss1	13
7	1003	2.402	1	10	-20	PA	loss	loss1	14
7	1003	1.902	1	8	-15	PA	loss	loss1	15
7	1003	1.663	0	4	-5	PA	loss	loss1	16
7	1003	1.695	1	8	-25	PA	loss	loss1	17
7	1003	1.968	1	8	-20	PA	loss	loss1	18
7	1003	1.394	0	8	-5	PA	loss	loss1	19
7	1003	1.038	0	10	-10	PA	loss	loss1	20
7	1003	4.739	1	10	-15	PA	loss	loss1	21
7	1003	1.245	1	2	-15	PA	loss	loss1	22
7	1003	1.075	1	6	-20	PA	loss	loss1	23
7	1003	1.254	1	6	-25	PA	loss	loss1	24
7	1003	0.902	1	2	-25	PA	loss	loss1	25
7	1003	0.943	1	2	-15	PA	loss	loss1	26
7	1003	1.709	1	10	-20	PA	loss	loss1	27
7	1003	2.831	1	4	-25	PA	loss	loss1	28
7	1003	1.676	0	10	-15	PA	loss	loss1	29
7	1003	1.7	1	8	-20	PA	loss	loss1	30
7	1003	2.655	1	10	-25	PA	loss	loss1	31
7	1003	1.382	0	10	-10	PA	loss	loss1	32
7	1003	1.38	0	8	-5	PA	loss	loss1	33
7	1003	1.241	1	4	-10	PA	loss	loss1	34
7	1003	2.401	1	4	-5	PA	loss	loss1	35
7	1003	1.337	1	4	-20	PA	loss	loss1	36
7	1003	1.725	1	6	-25	PA	loss	loss1	37
7	1003	1.511	0	6	-10	PA	loss	loss1	38
7	1003	1.162	0	8	-10	PA	loss	loss1	39
7	1003	1.077	1	4	-15	PA	loss	loss1	40
7	1003	1.383	1	2	-10	PA	loss	loss1	41
7	1003	1.296	1	8	-15	PA	loss	loss1	42
7	1003	0.978	0	10	-5	PA	loss	loss1	43
7	1003	0.829	1	2	-20	PA	loss	loss1	44
7	1003	0.925	1	2	-25	PA	loss	loss1	45
7	1003	1.249	1	6	-20	PA	loss	loss1	46
7	1003	2.456	1	2	-5	PA	loss	loss1	47
7	1003	2.765	1	8	-25	PA	loss	loss1	48
7	1003	1.353	0	6	-5	PA	loss	loss1	49
7	1003	2.586	1	6	-15	PA	loss	loss1	50
9	1004	12.02	1	2	-25	PA	loss	loss1	1
9	1004	4.909	0	4	-5	PA	loss	loss1	2
9	1004	2.443	1	4	-20	PA	loss	loss1	3
9	1004	1.426	1	10	-20	PA	loss	loss1	4
9	1004	1.643	1	6	-20	PA	loss	loss1	5
9	1004	1.627	1	4	-15	PA	loss	loss1	6
9	1004	3.524	1	8	-15	PA	loss	loss1	7
9	1004	2.264	0	8	-5	PA	loss	loss1	8
9	1004	1.279	1	4	-25	PA	loss	loss1	9
9	1004	2.11	1	6	-5	PA	loss	loss1	10
9	1004	1.898	1	8	-20	PA	loss	loss1	11
9	1004	2.424	1	8	-25	PA	loss	loss1	12
9	1004	1.473	1	8	-10	PA	loss	loss1	13
9	1004	2.032	1	6	-25	PA	loss	loss1	14
9	1004	0.992	1	2	-5	PA	loss	loss1	15
9	1004	0.074	1	10	-25	PA	loss	loss1	16
9	1004	1.265	1	2	-15	PA	loss	loss1	17
9	1004	2.632	0	10	-5	PA	loss	loss1	18
9	1004	1.681	0	10	-15	PA	loss	loss1	19
9	1004	1.343	1	2	-10	PA	loss	loss1	20
9	1004	1.187	1	6	-10	PA	loss	loss1	21
9	1004	0.982	1	2	-20	PA	loss	loss1	22
9	1004	2.953	1	10	-10	PA	loss	loss1	23
9	1004	1.525	1	4	-10	PA	loss	loss1	24
9	1004	2.137	1	6	-15	PA	loss	loss1	25
9	1004	1.255	1	4	-15	PA	loss	loss1	26
9	1004	1.927	1	6	-20	PA	loss	loss1	27
9	1004	1.356	1	2	-20	PA	loss	loss1	28
9	1004	1.423	1	8	-15	PA	loss	loss1	29
9	1004	0.016	1	8	-10	PA	loss	loss1	30
9	1004	1.241	1	4	-10	PA	loss	loss1	31
9	1004	1.481	1	6	-5	PA	loss	loss1	32
9	1004	1.776	0	10	-5	PA	loss	loss1	33
9	1004	1.371	1	4	-20	PA	loss	loss1	34
9	1004	1.878	1	2	-10	PA	loss	loss1	35
9	1004	1.757	1	2	-15	PA	loss	loss1	36
9	1004	3.073	1	10	-15	PA	loss	loss1	37
9	1004	4.415	1	10	-10	PA	loss	loss1	38
9	1004	2.617	1	8	-25	PA	loss	loss1	39
9	1004	0.85	1	2	-25	PA	loss	loss1	40
9	1004	2.722	0	8	-20	PA	loss	loss1	41
9	1004	2.208	1	6	-10	PA	loss	loss1	42
9	1004	1.273	1	6	-25	PA	loss	loss1	43
9	1004	1.104	1	6	-15	PA	loss	loss1	44
9	1004	1.622	1	10	-25	PA	loss	loss1	45
9	1004	2.319	1	10	-20	PA	loss	loss1	46
9	1004	1.501	1	2	-5	PA	loss	loss1	47
9	1004	0.851	1	8	-5	PA	loss	loss1	48
9	1004	0.939	1	4	-5	PA	loss	loss1	49
9	1004	0.992	1	4	-25	PA	loss	loss1	50
12	1005	2.371	1	8	-25	PA	loss	loss1	1
12	1005	1.838	0	8	-5	PA	loss	loss1	2
12	1005	1.302	1	4	-5	PA	loss	loss1	3
12	1005	1.276	1	2	-20	PA	loss	loss1	4
12	1005	2.027	1	6	-5	PA	loss	loss1	5
12	1005	1.571	1	8	-15	PA	loss	loss1	6
12	1005	1.302	1	10	-10	PA	loss	loss1	7
12	1005	1.14	1	8	-10	PA	loss	loss1	8
12	1005	1.16	1	2	-10	PA	loss	loss1	9
12	1005	2.451	1	4	-10	PA	loss	loss1	10
12	1005	0.963	1	6	-25	PA	loss	loss1	11
12	1005	0.782	1	2	-5	PA	loss	loss1	12
12	1005	1.001	1	6	-10	PA	loss	loss1	13
12	1005	0.762	1	4	-15	PA	loss	loss1	14
12	1005	0.773	1	8	-20	PA	loss	loss1	15
12	1005	0.647	1	6	-15	PA	loss	loss1	16
12	1005	0.807	1	4	-20	PA	loss	loss1	17
12	1005	1.104	1	10	-20	PA	loss	loss1	18
12	1005	0.669	1	10	-15	PA	loss	loss1	19
12	1005	0.708	1	2	-15	PA	loss	loss1	20
12	1005	1.105	1	4	-25	PA	loss	loss1	21
12	1005	0.559	1	10	-25	PA	loss	loss1	22
12	1005	0.883	1	2	-25	PA	loss	loss1	23
12	1005	1.961	0	10	-5	PA	loss	loss1	24
12	1005	1.843	1	6	-20	PA	loss	loss1	25
12	1005	1.124	1	4	-10	PA	loss	loss1	26
12	1005	1.768	1	4	-20	PA	loss	loss1	27
12	1005	1.612	1	10	-15	PA	loss	loss1	28
12	1005	1.045	1	4	-15	PA	loss	loss1	29
12	1005	0.853	1	2	-25	PA	loss	loss1	30
12	1005	1.061	1	8	-20	PA	loss	loss1	31
12	1005	0.909	1	10	-20	PA	loss	loss1	32
12	1005	1.394	0	10	-10	PA	loss	loss1	33
12	1005	1.156	1	6	-25	PA	loss	loss1	34
12	1005	0.808	1	2	-15	PA	loss	loss1	35
12	1005	0.681	1	10	-25	PA	loss	loss1	36
12	1005	1.08	0	8	-5	PA	loss	loss1	37
12	1005	1.551	1	6	-5	PA	loss	loss1	38
12	1005	1.251	1	8	-15	PA	loss	loss1	39
12	1005	1.387	1	8	-10	PA	loss	loss1	40
12	1005	1.302	1	6	-10	PA	loss	loss1	41
12	1005	0.956	1	4	-5	PA	loss	loss1	42
12	1005	1.111	1	2	-5	PA	loss	loss1	43
12	1005	0.981	1	8	-25	PA	loss	loss1	44
12	1005	1.256	1	6	-20	PA	loss	loss1	45
12	1005	0.983	0	10	-5	PA	loss	loss1	46
12	1005	1.098	1	6	-15	PA	loss	loss1	47
12	1005	0.912	1	4	-25	PA	loss	loss1	48
12	1005	1.421	1	2	-20	PA	loss	loss1	49
12	1005	0.679	1	2	-10	PA	loss	loss1	50
13	1006	13.697	1	8	-10	PA	loss	loss1	1
13	1006	1.399	1	10	-15	PA	loss	loss1	2
13	1006	0.913	1	2	-15	PA	loss	loss1	3
13	1006	0.55	1	6	-10	PA	loss	loss1	4
13	1006	0.794	1	2	-20	PA	loss	loss1	5
13	1006	0.749	1	8	-20	PA	loss	loss1	6
13	1006	0.897	1	10	-25	PA	loss	loss1	7
13	1006	1.127	1	6	-20	PA	loss	loss1	8
13	1006	0.828	1	4	-20	PA	loss	loss1	9
13	1006	0.98	1	8	-15	PA	loss	loss1	10
13	1006	0.943	1	6	-15	PA	loss	loss1	11
13	1006	0.715	1	4	-10	PA	loss	loss1	12
13	1006	1.225	1	10	-10	PA	loss	loss1	13
13	1006	1.481	1	10	-5	PA	loss	loss1	14
13	1006	0.896	1	2	-25	PA	loss	loss1	15
13	1006	1.198	1	6	-5	PA	loss	loss1	16
13	1006	0.848	1	10	-20	PA	loss	loss1	17
13	1006	1.105	1	8	-5	PA	loss	loss1	18
13	1006	2.031	1	8	-25	PA	loss	loss1	19
13	1006	0.815	1	4	-25	PA	loss	loss1	20
13	1006	0.793	1	6	-25	PA	loss	loss1	21
13	1006	1.179	1	4	-5	PA	loss	loss1	22
13	1006	0.87	1	2	-10	PA	loss	loss1	23
13	1006	0.661	1	4	-15	PA	loss	loss1	24
13	1006	0.957	1	2	-5	PA	loss	loss1	25
13	1006	0.862	1	2	-10	PA	loss	loss1	26
13	1006	0.942	1	2	-20	PA	loss	loss1	27
13	1006	1.034	1	4	-15	PA	loss	loss1	28
13	1006	0.938	1	8	-15	PA	loss	loss1	29
13	1006	0.855	1	4	-25	PA	loss	loss1	30
13	1006	0.959	1	10	-25	PA	loss	loss1	31
13	1006	0.963	1	8	-10	PA	loss	loss1	32
13	1006	0.734	1	6	-5	PA	loss	loss1	33
13	1006	0.739	1	6	-10	PA	loss	loss1	34
13	1006	0.664	1	8	-5	PA	loss	loss1	35
13	1006	0.903	1	2	-25	PA	loss	loss1	36
13	1006	0.765	1	6	-25	PA	loss	loss1	37
13	1006	0.721	1	10	-10	PA	loss	loss1	38
13	1006	0.598	1	6	-20	PA	loss	loss1	39
13	1006	0.68	1	10	-5	PA	loss	loss1	40
13	1006	0.583	1	4	-20	PA	loss	loss1	41
13	1006	2.93	1	8	-25	PA	loss	loss1	42
13	1006	0.711	1	10	-20	PA	loss	loss1	43
13	1006	0.468	1	4	-5	PA	loss	loss1	44
13	1006	0.604	1	2	-5	PA	loss	loss1	45
13	1006	0.87	1	4	-10	PA	loss	loss1	46
13	1006	0.565	1	8	-20	PA	loss	loss1	47
13	1006	1.265	1	2	-15	PA	loss	loss1	48
13	1006	0.888	1	6	-15	PA	loss	loss1	49
13	1006	0.743	1	10	-15	PA	loss	loss1	50
18	1007	5.72	1	2	-25	PA	loss	loss1	1
18	1007	2.39	1	2	-5	PA	loss	loss1	2
18	1007	0.848	1	4	-25	PA	loss	loss1	3
18	1007	2.135	1	10	-25	PA	loss	loss1	4
18	1007	1.86	1	8	-25	PA	loss	loss1	5
18	1007	1.268	1	6	-15	PA	loss	loss1	6
18	1007	2.291	0	8	-5	PA	loss	loss1	7
18	1007	4.873	1	10	-10	PA	loss	loss1	8
18	1007	1.616	1	4	-20	PA	loss	loss1	9
18	1007	1.545	1	4	-15	PA	loss	loss1	10
18	1007	1.773	1	8	-15	PA	loss	loss1	11
18	1007	1.784	1	2	-20	PA	loss	loss1	12
18	1007	1.683	1	4	-5	PA	loss	loss1	13
18	1007	1.826	1	10	-20	PA	loss	loss1	14
18	1007	1.979	1	8	-20	PA	loss	loss1	15
18	1007	1.557	0	10	-5	PA	loss	loss1	16
18	1007	1.265	1	6	-25	PA	loss	loss1	17
18	1007	2.176	1	6	-10	PA	loss	loss1	18
18	1007	1.739	1	10	-15	PA	loss	loss1	19
18	1007	2.759	1	6	-20	PA	loss	loss1	20
18	1007	1.587	1	2	-10	PA	loss	loss1	21
18	1007	2.078	1	8	-10	PA	loss	loss1	22
18	1007	1.924	1	6	-5	PA	loss	loss1	23
18	1007	1.001	1	4	-10	PA	loss	loss1	24
18	1007	0.867	1	2	-15	PA	loss	loss1	25
18	1007	2.119	1	8	-15	PA	loss	loss1	26
18	1007	1.101	1	4	-10	PA	loss	loss1	27
18	1007	1.067	1	6	-20	PA	loss	loss1	28
18	1007	0.955	1	4	-20	PA	loss	loss1	29
18	1007	0.935	1	8	-20	PA	loss	loss1	30
18	1007	0.979	1	6	-15	PA	loss	loss1	31
18	1007	5.014	1	10	-20	PA	loss	loss1	32
18	1007	1.776	1	4	-25	PA	loss	loss1	33
18	1007	0.859	1	2	-10	PA	loss	loss1	34
18	1007	0.97	1	2	-15	PA	loss	loss1	35
18	1007	0.877	1	2	-20	PA	loss	loss1	36
18	1007	0.988	1	4	-5	PA	loss	loss1	37
18	1007	0.863	1	2	-25	PA	loss	loss1	38
18	1007	2.919	0	10	-10	PA	loss	loss1	39
18	1007	1.94	0	10	-5	PA	loss	loss1	40
18	1007	2.089	0	8	-5	PA	loss	loss1	41
18	1007	2.352	1	6	-25	PA	loss	loss1	42
18	1007	1.228	1	4	-15	PA	loss	loss1	43
18	1007	1.012	1	8	-25	PA	loss	loss1	44
18	1007	1.565	1	6	-10	PA	loss	loss1	45
18	1007	2.889	1	10	-15	PA	loss	loss1	46
18	1007	2.095	1	10	-25	PA	loss	loss1	47
18	1007	3.269	1	8	-10	PA	loss	loss1	48
18	1007	2.404	1	6	-5	PA	loss	loss1	49
18	1007	1.166	1	2	-5	PA	loss	loss1	50
22	1008	1.664	1	6	-20	PA	loss	loss1	1
22	1008	2.247	1	8	-25	PA	loss	loss1	2
22	1008	1.39	0	10	-10	PA	loss	loss1	3
22	1008	1.176	1	6	-15	PA	loss	loss1	4
22	1008	2.042	0	10	-15	PA	loss	loss1	5
22	1008	1.866	1	6	-25	PA	loss	loss1	6
22	1008	0.969	1	8	-15	PA	loss	loss1	7
22	1008	1.725	1	8	-5	PA	loss	loss1	8
22	1008	1.001	1	4	-25	PA	loss	loss1	9
22	1008	1.955	1	6	-10	PA	loss	loss1	10
22	1008	0.606	1	6	-5	PA	loss	loss1	11
22	1008	1.048	1	4	-15	PA	loss	loss1	12
22	1008	2.766	0	10	-25	PA	loss	loss1	13
22	1008	1.955	1	2	-5	PA	loss	loss1	14
22	1008	1.615	1	2	-15	PA	loss	loss1	15
22	1008	1.04	1	4	-10	PA	loss	loss1	16
22	1008	1.176	1	2	-20	PA	loss	loss1	17
22	1008	1.459	0	10	-5	PA	loss	loss1	18
22	1008	1.001	1	4	-20	PA	loss	loss1	19
22	1008	2.076	1	2	-25	PA	loss	loss1	20
22	1008	1.354	1	8	-10	PA	loss	loss1	21
22	1008	1.534	0	10	-20	PA	loss	loss1	22
22	1008	1.41	1	8	-20	PA	loss	loss1	23
22	1008	1.859	1	2	-10	PA	loss	loss1	24
22	1008	0.868	1	4	-5	PA	loss	loss1	25
22	1008	3.179	1	8	-5	PA	loss	loss1	26
22	1008	1.462	0	8	-25	PA	loss	loss1	27
22	1008	1.213	0	10	-20	PA	loss	loss1	28
22	1008	0.855	1	6	-25	PA	loss	loss1	29
22	1008	0.662	1	2	-20	PA	loss	loss1	30
22	1008	1.558	1	2	-10	PA	loss	loss1	31
22	1008	0.833	1	6	-20	PA	loss	loss1	32
22	1008	2.658	0	10	-5	PA	loss	loss1	33
22	1008	0.737	0	10	-25	PA	loss	loss1	34
22	1008	2.126	1	2	-25	PA	loss	loss1	35
22	1008	1.771	1	6	-5	PA	loss	loss1	36
22	1008	0.982	1	6	-10	PA	loss	loss1	37
22	1008	0.617	1	2	-5	PA	loss	loss1	38
22	1008	0.963	1	4	-5	PA	loss	loss1	39
22	1008	1.134	1	10	-15	PA	loss	loss1	40
22	1008	2.155	0	8	-20	PA	loss	loss1	41
22	1008	1.151	1	6	-15	PA	loss	loss1	42
22	1008	1.331	0	8	-10	PA	loss	loss1	43
22	1008	0.792	1	4	-10	PA	loss	loss1	44
22	1008	6.114	0	4	-15	PA	loss	loss1	45
22	1008	1.199	0	4	-25	PA	loss	loss1	46
22	1008	6.393	0	4	-20	PA	loss	loss1	47
22	1008	2.308	0	8	-15	PA	loss	loss1	48
22	1008	1.945	1	2	-15	PA	loss	loss1	49
22	1008	1.373	0	10	-10	PA	loss	loss1	50
23	1009	0.42	1	10	-15	PA	loss	loss1	1
23	1009	3.803	1	4	-5	PA	loss	loss1	2
23	1009	0.591	1	6	-25	PA	loss	loss1	3
23	1009	0.603	1	10	-10	PA	loss	loss1	4
23	1009	0.479	1	8	-10	PA	loss	loss1	5
23	1009	0.699	1	2	-5	PA	loss	loss1	6
23	1009	0.942	1	4	-15	PA	loss	loss1	7
23	1009	1.575	1	10	-25	PA	loss	loss1	8
23	1009	0.374	1	8	-15	PA	loss	loss1	9
23	1009	0.568	1	4	-20	PA	loss	loss1	10
23	1009	0.293	1	4	-10	PA	loss	loss1	11
23	1009	0.585	1	2	-20	PA	loss	loss1	12
23	1009	0.57	1	4	-25	PA	loss	loss1	13
23	1009	0.417	1	2	-25	PA	loss	loss1	14
23	1009	0.44	1	10	-20	PA	loss	loss1	15
23	1009	0.612	1	6	-20	PA	loss	loss1	16
23	1009	0.792	1	6	-10	PA	loss	loss1	17
23	1009	0.563	1	8	-25	PA	loss	loss1	18
23	1009	0.622	1	8	-5	PA	loss	loss1	19
23	1009	0.456	1	6	-15	PA	loss	loss1	20
23	1009	0.457	1	2	-15	PA	loss	loss1	21
23	1009	0.479	1	10	-5	PA	loss	loss1	22
23	1009	0.559	1	8	-20	PA	loss	loss1	23
23	1009	0.427	1	6	-5	PA	loss	loss1	24
23	1009	0.34	1	2	-10	PA	loss	loss1	25
23	1009	0.664	1	10	-10	PA	loss	loss1	26
23	1009	0.4	1	8	-25	PA	loss	loss1	27
23	1009	0.555	1	10	-20	PA	loss	loss1	28
23	1009	0.312	1	8	-10	PA	loss	loss1	29
23	1009	0.322	1	6	-5	PA	loss	loss1	30
23	1009	0.382	1	2	-15	PA	loss	loss1	31
23	1009	0.523	1	8	-20	PA	loss	loss1	32
23	1009	0.339	1	6	-10	PA	loss	loss1	33
23	1009	0.783	1	6	-20	PA	loss	loss1	34
23	1009	0.478	1	10	-5	PA	loss	loss1	35
23	1009	0.413	1	8	-5	PA	loss	loss1	36
23	1009	0.364	1	2	-25	PA	loss	loss1	37
23	1009	0.711	1	2	-10	PA	loss	loss1	38
23	1009	0.496	1	10	-25	PA	loss	loss1	39
23	1009	1.962	1	2	-5	PA	loss	loss1	40
23	1009	0.427	1	10	-15	PA	loss	loss1	41
23	1009	0.441	1	6	-25	PA	loss	loss1	42
23	1009	1.765	1	4	-20	PA	loss	loss1	43
23	1009	0.45	1	2	-20	PA	loss	loss1	44
23	1009	0.646	1	4	-15	PA	loss	loss1	45
23	1009	0.483	1	8	-15	PA	loss	loss1	46
23	1009	0.328	1	4	-5	PA	loss	loss1	47
23	1009	0.404	1	4	-25	PA	loss	loss1	48
23	1009	0.369	1	6	-15	PA	loss	loss1	49
23	1009	0.528	1	4	-10	PA	loss	loss1	50
24	1010	2.524	1	8	-10	PA	loss	loss1	1
24	1010	0.657	1	10	-15	PA	loss	loss1	2
24	1010	0.623	1	10	-25	PA	loss	loss1	3
24	1010	0.586	1	8	-15	PA	loss	loss1	4
24	1010	0.978	1	4	-15	PA	loss	loss1	5
24	1010	0.938	1	8	-25	PA	loss	loss1	6
24	1010	0.731	1	10	-5	PA	loss	loss1	7
24	1010	0.648	1	2	-25	PA	loss	loss1	8
24	1010	3.9	1	6	-5	PA	loss	loss1	9
24	1010	1.974	1	6	-20	PA	loss	loss1	10
24	1010	0.41	1	10	-20	PA	loss	loss1	11
24	1010	0.525	1	4	-20	PA	loss	loss1	12
24	1010	0.482	1	6	-25	PA	loss	loss1	13
24	1010	0.527	1	2	-10	PA	loss	loss1	14
24	1010	1.952	1	4	-5	PA	loss	loss1	15
24	1010	0.663	1	4	-25	PA	loss	loss1	16
24	1010	1.398	1	2	-5	PA	loss	loss1	17
24	1010	0.573	1	6	-15	PA	loss	loss1	18
24	1010	0.49	1	10	-10	PA	loss	loss1	19
24	1010	0.734	1	4	-10	PA	loss	loss1	20
24	1010	0.624	1	8	-5	PA	loss	loss1	21
24	1010	1.687	1	6	-10	PA	loss	loss1	22
24	1010	1.027	1	2	-15	PA	loss	loss1	23
24	1010	1.471	1	2	-20	PA	loss	loss1	24
24	1010	1.074	1	8	-20	PA	loss	loss1	25
24	1010	0.493	1	6	-20	PA	loss	loss1	26
24	1010	0.469	1	4	-10	PA	loss	loss1	27
24	1010	0.441	1	8	-10	PA	loss	loss1	28
24	1010	0.571	1	8	-25	PA	loss	loss1	29
24	1010	0.426	1	8	-20	PA	loss	loss1	30
24	1010	0.984	1	6	-25	PA	loss	loss1	31
24	1010	0.429	1	2	-15	PA	loss	loss1	32
24	1010	0.526	1	6	-10	PA	loss	loss1	33
24	1010	0.684	1	4	-5	PA	loss	loss1	34
24	1010	0.945	1	10	-20	PA	loss	loss1	35
24	1010	0.635	1	2	-5	PA	loss	loss1	36
24	1010	0.606	1	4	-20	PA	loss	loss1	37
24	1010	0.829	1	10	-10	PA	loss	loss1	38
24	1010	0.651	1	6	-15	PA	loss	loss1	39
24	1010	0.455	1	10	-15	PA	loss	loss1	40
24	1010	0.612	1	8	-5	PA	loss	loss1	41
24	1010	1.069	1	2	-20	PA	loss	loss1	42
24	1010	0.628	1	4	-25	PA	loss	loss1	43
24	1010	1.538	1	10	-5	PA	loss	loss1	44
24	1010	2.183	1	2	-25	PA	loss	loss1	45
24	1010	1.645	1	2	-10	PA	loss	loss1	46
24	1010	0.561	1	8	-15	PA	loss	loss1	47
24	1010	3.459	1	10	-25	PA	loss	loss1	48
24	1010	0.723	1	4	-15	PA	loss	loss1	49
24	1010	0.536	1	6	-5	PA	loss	loss1	50
25	1011	3.21	0	10	-25	PA	loss	loss1	1
25	1011	1.504	0	10	-20	PA	loss	loss1	2
25	1011	4.225	1	8	-25	PA	loss	loss1	3
25	1011	2.144	1	4	-15	PA	loss	loss1	4
25	1011	2.008	0	10	-10	PA	loss	loss1	5
25	1011	1.959	1	4	-5	PA	loss	loss1	6
25	1011	1.962	1	2	-25	PA	loss	loss1	7
25	1011	1.644	1	2	-10	PA	loss	loss1	8
25	1011	2.69	1	6	-10	PA	loss	loss1	9
25	1011	3.005	1	8	-10	PA	loss	loss1	10
25	1011	2.491	1	8	-15	PA	loss	loss1	11
25	1011	1.88	1	2	-20	PA	loss	loss1	12
25	1011	4.24	1	6	-15	PA	loss	loss1	13
25	1011	1.542	0	10	-15	PA	loss	loss1	14
25	1011	1.242	0	10	-5	PA	loss	loss1	15
25	1011	1.727	1	4	-10	PA	loss	loss1	16
25	1011	1.582	1	2	-15	PA	loss	loss1	17
25	1011	2.569	0	8	-5	PA	loss	loss1	18
25	1011	2.117	0	6	-5	PA	loss	loss1	19
25	1011	2.067	1	2	-5	PA	loss	loss1	20
25	1011	2.815	1	6	-20	PA	loss	loss1	21
25	1011	1.859	1	4	-25	PA	loss	loss1	22
25	1011	1.978	1	8	-20	PA	loss	loss1	23
25	1011	1.298	1	4	-20	PA	loss	loss1	24
25	1011	1.568	1	6	-25	PA	loss	loss1	25
25	1011	2.744	1	4	-25	PA	loss	loss1	26
25	1011	2.206	0	8	-10	PA	loss	loss1	27
25	1011	1.547	1	2	-5	PA	loss	loss1	28
25	1011	2.999	1	4	-15	PA	loss	loss1	29
25	1011	4.099	1	8	-25	PA	loss	loss1	30
25	1011	2.023	1	4	-5	PA	loss	loss1	31
25	1011	1.865	0	10	-5	PA	loss	loss1	32
25	1011	4.587	1	8	-15	PA	loss	loss1	33
25	1011	2.553	0	10	-15	PA	loss	loss1	34
25	1011	4.439	1	4	-20	PA	loss	loss1	35
25	1011	2.266	1	6	-5	PA	loss	loss1	36
25	1011	3.228	1	2	-10	PA	loss	loss1	37
25	1011	1.702	0	10	-25	PA	loss	loss1	38
25	1011	1.22	1	6	-10	PA	loss	loss1	39
25	1011	2.767	1	6	-20	PA	loss	loss1	40
25	1011	5.516	1	6	-25	PA	loss	loss1	41
25	1011	2.69	0	8	-5	PA	loss	loss1	42
25	1011	5.736	1	6	-15	PA	loss	loss1	43
25	1011	3.492	1	2	-15	PA	loss	loss1	44
25	1011	1.491	0	10	-10	PA	loss	loss1	45
25	1011	2.136	1	2	-25	PA	loss	loss1	46
25	1011	0.806	1	2	-20	PA	loss	loss1	47
25	1011	1.653	0	10	-20	PA	loss	loss1	48
25	1011	2.587	1	8	-20	PA	loss	loss1	49
25	1011	1.909	1	4	-10	PA	loss	loss1	50
26	1012	3.682	1	4	-20	PA	loss	loss1	1
26	1012	8.977	1	8	-15	PA	loss	loss1	2
26	1012	3.141	1	6	-25	PA	loss	loss1	3
26	1012	1.614	0	8	-5	PA	loss	loss1	4
26	1012	2.77	1	2	-10	PA	loss	loss1	5
26	1012	5.069	1	4	-15	PA	loss	loss1	6
26	1012	2.04	0	4	-5	PA	loss	loss1	7
26	1012	4.251	1	10	-25	PA	loss	loss1	8
26	1012	6.565	1	4	-10	PA	loss	loss1	9
26	1012	5.351	1	10	-15	PA	loss	loss1	10
26	1012	2.89	1	8	-25	PA	loss	loss1	11
26	1012	2.534	1	2	-25	PA	loss	loss1	12
26	1012	2.387	1	2	-15	PA	loss	loss1	13
26	1012	3.679	1	6	-15	PA	loss	loss1	14
26	1012	2.915	0	8	-10	PA	loss	loss1	15
26	1012	4.223	1	6	-20	PA	loss	loss1	16
26	1012	9.062	0	10	-10	PA	loss	loss1	17
26	1012	4.357	1	10	-20	PA	loss	loss1	18
26	1012	4.522	1	4	-25	PA	loss	loss1	19
26	1012	3.176	1	2	-20	PA	loss	loss1	20
26	1012	2.909	1	2	-5	PA	loss	loss1	21
26	1012	5.249	0	6	-5	PA	loss	loss1	22
26	1012	5.469	1	6	-10	PA	loss	loss1	23
26	1012	2.134	0	10	-5	PA	loss	loss1	24
26	1012	2.492	1	8	-20	PA	loss	loss1	25
26	1012	3.199	1	10	-20	PA	loss	loss1	26
26	1012	2.476	1	2	-15	PA	loss	loss1	27
26	1012	1.494	0	10	-5	PA	loss	loss1	28
26	1012	2.737	1	6	-20	PA	loss	loss1	29
26	1012	2.605	1	4	-20	PA	loss	loss1	30
26	1012	2.229	1	6	-25	PA	loss	loss1	31
26	1012	1.913	0	8	-5	PA	loss	loss1	32
26	1012	3.278	0	6	-10	PA	loss	loss1	33
26	1012	3.404	1	8	-20	PA	loss	loss1	34
26	1012	3.809	1	6	-15	PA	loss	loss1	35
26	1012	2.462	0	6	-5	PA	loss	loss1	36
26	1012	2.736	1	2	-20	PA	loss	loss1	37
26	1012	2.629	1	4	-10	PA	loss	loss1	38
26	1012	2.853	0	8	-10	PA	loss	loss1	39
26	1012	2.951	0	10	-10	PA	loss	loss1	40
26	1012	2.703	1	4	-5	PA	loss	loss1	41
26	1012	2.758	1	2	-10	PA	loss	loss1	42
26	1012	2.511	1	4	-25	PA	loss	loss1	43
26	1012	2.902	1	8	-25	PA	loss	loss1	44
26	1012	3.627	1	10	-25	PA	loss	loss1	45
26	1012	5.313	1	8	-15	PA	loss	loss1	46
26	1012	4.355	1	10	-15	PA	loss	loss1	47
26	1012	3.834	1	4	-15	PA	loss	loss1	48
26	1012	1.874	1	2	-25	PA	loss	loss1	49
26	1012	2.66	1	2	-5	PA	loss	loss1	50
28	1013	11.315	1	8	-20	PA	loss	loss1	1
28	1013	1.264	0	6	-5	PA	loss	loss1	2
28	1013	1.543	1	8	-15	PA	loss	loss1	3
28	1013	1.017	1	4	-25	PA	loss	loss1	4
28	1013	1.561	1	4	-20	PA	loss	loss1	5
28	1013	1.108	1	10	-20	PA	loss	loss1	6
28	1013	1.324	1	8	-10	PA	loss	loss1	7
28	1013	1.469	0	4	-5	PA	loss	loss1	8
28	1013	0.887	0	2	-5	PA	loss	loss1	9
28	1013	1.965	0	8	-5	PA	loss	loss1	10
28	1013	0.744	1	10	-25	PA	loss	loss1	11
28	1013	1.017	1	2	-25	PA	loss	loss1	12
28	1013	1.02	1	2	-10	PA	loss	loss1	13
28	1013	0.661	1	6	-20	PA	loss	loss1	14
28	1013	0.798	1	6	-15	PA	loss	loss1	15
28	1013	1.427	1	2	-20	PA	loss	loss1	16
28	1013	1.872	1	6	-10	PA	loss	loss1	17
28	1013	1.038	1	4	-10	PA	loss	loss1	18
28	1013	0.901	1	2	-15	PA	loss	loss1	19
28	1013	1.248	1	10	-15	PA	loss	loss1	20
28	1013	1.841	1	10	-10	PA	loss	loss1	21
28	1013	1.151	1	6	-25	PA	loss	loss1	22
28	1013	1.96	0	10	-5	PA	loss	loss1	23
28	1013	1.085	1	4	-15	PA	loss	loss1	24
28	1013	1.159	1	8	-25	PA	loss	loss1	25
28	1013	0.91	1	6	-25	PA	loss	loss1	26
28	1013	0.679	1	4	-25	PA	loss	loss1	27
28	1013	0.715	1	10	-25	PA	loss	loss1	28
28	1013	1.782	1	8	-10	PA	loss	loss1	29
28	1013	1.216	1	8	-20	PA	loss	loss1	30
28	1013	0.813	1	6	-15	PA	loss	loss1	31
28	1013	1.231	0	10	-5	PA	loss	loss1	32
28	1013	0.52	1	6	-20	PA	loss	loss1	33
28	1013	1.151	1	6	-10	PA	loss	loss1	34
28	1013	0.581	1	10	-15	PA	loss	loss1	35
28	1013	2.564	1	8	-25	PA	loss	loss1	36
28	1013	0.664	1	2	-25	PA	loss	loss1	37
28	1013	0.993	0	8	-5	PA	loss	loss1	38
28	1013	2.173	1	2	-5	PA	loss	loss1	39
28	1013	0.769	1	2	-20	PA	loss	loss1	40
28	1013	1.297	1	2	-10	PA	loss	loss1	41
28	1013	0.61	1	4	-20	PA	loss	loss1	42
28	1013	0.674	1	4	-15	PA	loss	loss1	43
28	1013	0.777	1	2	-15	PA	loss	loss1	44
28	1013	1.331	1	6	-5	PA	loss	loss1	45
28	1013	1.223	1	4	-10	PA	loss	loss1	46
28	1013	0.683	1	10	-20	PA	loss	loss1	47
28	1013	2.037	0	4	-5	PA	loss	loss1	48
28	1013	0.938	1	8	-15	PA	loss	loss1	49
28	1013	2.593	0	10	-10	PA	loss	loss1	50
30	1014	4.489	1	10	-25	PA	loss	loss1	1
30	1014	3.984	1	4	-15	PA	loss	loss1	2
30	1014	2.377	1	2	-10	PA	loss	loss1	3
30	1014	3.593	1	6	-20	PA	loss	loss1	4
30	1014	2.717	1	4	-10	PA	loss	loss1	5
30	1014	1.638	1	2	-15	PA	loss	loss1	6
30	1014	1.506	1	2	-20	PA	loss	loss1	7
30	1014	1.813	0	6	-10	PA	loss	loss1	8
30	1014	2.683	1	8	-20	PA	loss	loss1	9
30	1014	2.517	0	10	-5	PA	loss	loss1	10
30	1014	2.109	0	4	-5	PA	loss	loss1	11
30	1014	3.498	1	6	-15	PA	loss	loss1	12
30	1014	10.983	0	8	-15	PA	loss	loss1	13
30	1014	2.209	0	10	-10	PA	loss	loss1	14
30	1014	2.337	0	8	-5	PA	loss	loss1	15
30	1014	1.597	1	4	-25	PA	loss	loss1	16
30	1014	2.652	1	2	-5	PA	loss	loss1	17
30	1014	2.695	1	8	-25	PA	loss	loss1	18
30	1014	2.047	0	8	-10	PA	loss	loss1	19
30	1014	2.985	1	10	-20	PA	loss	loss1	20
30	1014	5.082	1	6	-25	PA	loss	loss1	21
30	1014	2.109	1	4	-20	PA	loss	loss1	22
30	1014	2.214	1	2	-25	PA	loss	loss1	23
30	1014	3.38	0	10	-15	PA	loss	loss1	24
30	1014	2.561	0	6	-5	PA	loss	loss1	25
30	1014	2.273	0	10	-10	PA	loss	loss1	26
30	1014	1.221	1	2	-20	PA	loss	loss1	27
30	1014	2.699	1	4	-25	PA	loss	loss1	28
30	1014	3.452	1	4	-15	PA	loss	loss1	29
30	1014	5.004	1	4	-10	PA	loss	loss1	30
30	1014	2.381	1	6	-25	PA	loss	loss1	31
30	1014	1.843	0	8	-5	PA	loss	loss1	32
30	1014	7.559	0	10	-15	PA	loss	loss1	33
30	1014	5.62	1	6	-15	PA	loss	loss1	34
30	1014	3.489	0	8	-15	PA	loss	loss1	35
30	1014	1.722	1	2	-5	PA	loss	loss1	36
30	1014	2.341	1	8	-25	PA	loss	loss1	37
30	1014	2.627	1	2	-15	PA	loss	loss1	38
30	1014	2.357	0	6	-10	PA	loss	loss1	39
30	1014	1.544	0	8	-10	PA	loss	loss1	40
30	1014	1.406	0	4	-5	PA	loss	loss1	41
30	1014	2.093	1	10	-25	PA	loss	loss1	42
30	1014	2.52	1	2	-10	PA	loss	loss1	43
30	1014	3.18	0	6	-5	PA	loss	loss1	44
30	1014	3.797	1	8	-20	PA	loss	loss1	45
30	1014	2.138	0	10	-20	PA	loss	loss1	46
30	1014	2.215	1	6	-20	PA	loss	loss1	47
30	1014	1.693	0	10	-5	PA	loss	loss1	48
30	1014	6.364	1	4	-20	PA	loss	loss1	49
30	1014	1.092	1	2	-25	PA	loss	loss1	50
35	1015	3.027	1	4	-25	PA	loss	loss1	1
35	1015	1.372	1	2	-5	PA	loss	loss1	2
35	1015	2.887	0	6	-5	PA	loss	loss1	3
35	1015	3.158	0	10	-5	PA	loss	loss1	4
35	1015	1.298	1	4	-5	PA	loss	loss1	5
35	1015	9.56	0	10	-15	PA	loss	loss1	6
35	1015	4.052	0	8	-10	PA	loss	loss1	7
35	1015	4.596	1	6	-15	PA	loss	loss1	8
35	1015	1.798	1	2	-25	PA	loss	loss1	9
35	1015	3.216	1	6	-20	PA	loss	loss1	10
35	1015	2.689	1	4	-10	PA	loss	loss1	11
35	1015	6.184	1	2	-10	PA	loss	loss1	12
35	1015	3.138	1	10	-25	PA	loss	loss1	13
35	1015	2.007	0	6	-10	PA	loss	loss1	14
35	1015	1.825	0	8	-5	PA	loss	loss1	15
35	1015	1.37	1	2	-20	PA	loss	loss1	16
35	1015	4.581	1	10	-20	PA	loss	loss1	17
35	1015	1.808	1	4	-15	PA	loss	loss1	18
35	1015	0.986	1	2	-15	PA	loss	loss1	19
35	1015	2.989	1	8	-20	PA	loss	loss1	20
35	1015	4.231	1	8	-25	PA	loss	loss1	21
35	1015	3.12	1	4	-20	PA	loss	loss1	22
35	1015	2.454	0	8	-15	PA	loss	loss1	23
35	1015	2.701	1	6	-25	PA	loss	loss1	24
35	1015	2.044	0	10	-10	PA	loss	loss1	25
35	1015	6.765	1	10	-20	PA	loss	loss1	26
35	1015	2.241	1	4	-10	PA	loss	loss1	27
35	1015	1.593	1	10	-25	PA	loss	loss1	28
35	1015	1.747	0	8	-5	PA	loss	loss1	29
35	1015	3.855	1	2	-20	PA	loss	loss1	30
35	1015	2.223	1	2	-5	PA	loss	loss1	31
35	1015	1.808	0	6	-10	PA	loss	loss1	32
35	1015	1.425	1	6	-25	PA	loss	loss1	33
35	1015	2.466	1	4	-15	PA	loss	loss1	34
35	1015	2.546	1	6	-20	PA	loss	loss1	35
35	1015	1.694	0	4	-5	PA	loss	loss1	36
35	1015	2.388	1	8	-25	PA	loss	loss1	37
35	1015	1.519	0	6	-5	PA	loss	loss1	38
35	1015	2.668	1	4	-25	PA	loss	loss1	39
35	1015	1.98	0	8	-10	PA	loss	loss1	40
35	1015	0.998	1	2	-25	PA	loss	loss1	41
35	1015	2.224	0	10	-5	PA	loss	loss1	42
35	1015	1.857	1	2	-10	PA	loss	loss1	43
35	1015	1.817	1	2	-15	PA	loss	loss1	44
35	1015	1.778	0	10	-10	PA	loss	loss1	45
35	1015	5.581	1	6	-15	PA	loss	loss1	46
35	1015	2.504	1	8	-20	PA	loss	loss1	47
35	1015	2.086	1	4	-20	PA	loss	loss1	48
35	1015	2.629	0	10	-15	PA	loss	loss1	49
35	1015	2.405	0	8	-15	PA	loss	loss1	50
40	1016	3.019	1	2	-25	PA	loss	loss1	1
40	1016	0.796	1	4	-25	PA	loss	loss1	2
40	1016	0.446	1	6	-5	PA	loss	loss1	3
40	1016	0.767	1	4	-5	PA	loss	loss1	4
40	1016	0.69	1	4	-20	PA	loss	loss1	5
40	1016	0.92	1	8	-5	PA	loss	loss1	6
40	1016	3.894	1	10	-5	PA	loss	loss1	7
40	1016	1.843	1	8	-15	PA	loss	loss1	8
40	1016	1.292	1	6	-10	PA	loss	loss1	9
40	1016	0.074	1	2	-5	PA	loss	loss1	10
40	1016	2.816	1	10	-25	PA	loss	loss1	11
40	1016	1.058	1	2	-10	PA	loss	loss1	12
40	1016	0.897	1	4	-10	PA	loss	loss1	13
40	1016	0.983	1	4	-15	PA	loss	loss1	14
40	1016	1.626	1	10	-20	PA	loss	loss1	15
40	1016	2.538	1	8	-20	PA	loss	loss1	16
40	1016	0.583	1	8	-10	PA	loss	loss1	17
40	1016	0.097	1	10	-10	PA	loss	loss1	18
40	1016	1.328	1	6	-15	PA	loss	loss1	19
40	1016	2.164	1	10	-15	PA	loss	loss1	20
40	1016	1.144	1	6	-20	PA	loss	loss1	21
40	1016	0.82	1	2	-20	PA	loss	loss1	22
40	1016	2.453	1	2	-15	PA	loss	loss1	23
40	1016	1.222	1	8	-25	PA	loss	loss1	24
40	1016	3.198	1	6	-25	PA	loss	loss1	25
40	1016	0.547	1	10	-20	PA	loss	loss1	26
40	1016	0.567	1	4	-10	PA	loss	loss1	27
40	1016	0.571	1	2	-10	PA	loss	loss1	28
40	1016	0.758	1	6	-10	PA	loss	loss1	29
40	1016	1.905	1	10	-15	PA	loss	loss1	30
40	1016	0.446	1	8	-10	PA	loss	loss1	31
40	1016	0.751	1	6	-5	PA	loss	loss1	32
40	1016	1.123	1	10	-10	PA	loss	loss1	33
40	1016	0.631	1	4	-5	PA	loss	loss1	34
40	1016	0.768	1	4	-20	PA	loss	loss1	35
40	1016	0.508	1	6	-20	PA	loss	loss1	36
40	1016	0.705	1	6	-25	PA	loss	loss1	37
40	1016	1.615	0	10	-5	PA	loss	loss1	38
40	1016	2.48	1	8	-20	PA	loss	loss1	39
40	1016	1.159	1	2	-5	PA	loss	loss1	40
40	1016	0.914	1	2	-20	PA	loss	loss1	41
40	1016	1.08	1	2	-25	PA	loss	loss1	42
40	1016	0.751	1	6	-15	PA	loss	loss1	43
40	1016	1.155	1	8	-5	PA	loss	loss1	44
40	1016	0.798	1	8	-25	PA	loss	loss1	45
40	1016	1.176	1	4	-15	PA	loss	loss1	46
40	1016	1.227	1	10	-25	PA	loss	loss1	47
40	1016	0.556	1	4	-25	PA	loss	loss1	48
40	1016	0.711	1	2	-15	PA	loss	loss1	49
40	1016	0.477	1	8	-15	PA	loss	loss1	50
42	1017	1.896	1	2	-25	PA	loss	loss1	1
42	1017	7.254	1	8	-10	PA	loss	loss1	2
42	1017	2.103	1	4	-10	PA	loss	loss1	3
42	1017	0.885	1	2	-10	PA	loss	loss1	4
42	1017	1.619	1	4	-15	PA	loss	loss1	5
42	1017	3.485	1	6	-20	PA	loss	loss1	6
42	1017	3.5	1	8	-5	PA	loss	loss1	7
42	1017	11.145	1	10	-10	PA	loss	loss1	8
42	1017	10.157	1	8	-15	PA	loss	loss1	9
42	1017	5.169	1	4	-20	PA	loss	loss1	10
42	1017	13.068	1	10	-20	PA	loss	loss1	11
42	1017	2.396	1	6	-25	PA	loss	loss1	12
42	1017	7.037	1	10	-25	PA	loss	loss1	13
42	1017	1.414	1	4	-25	PA	loss	loss1	14
42	1017	1.335	1	2	-20	PA	loss	loss1	15
42	1017	4.204	1	6	-5	PA	loss	loss1	16
42	1017	4.462	1	8	-25	PA	loss	loss1	17
42	1017	5.101	1	10	-15	PA	loss	loss1	18
42	1017	1.572	1	2	-15	PA	loss	loss1	19
42	1017	4.527	1	10	-5	PA	loss	loss1	20
42	1017	9.61	1	6	-10	PA	loss	loss1	21
42	1017	2.436	1	2	-5	PA	loss	loss1	22
42	1017	1.725	1	4	-5	PA	loss	loss1	23
42	1017	4.386	1	8	-20	PA	loss	loss1	24
42	1017	4.276	1	6	-15	PA	loss	loss1	25
42	1017	2.481	1	8	-25	PA	loss	loss1	26
42	1017	3.728	0	8	-5	PA	loss	loss1	27
42	1017	7.837	1	8	-15	PA	loss	loss1	28
42	1017	2.558	1	4	-25	PA	loss	loss1	29
42	1017	3.233	0	10	-10	PA	loss	loss1	30
42	1017	1.298	1	2	-15	PA	loss	loss1	31
42	1017	1.92	1	8	-20	PA	loss	loss1	32
42	1017	3.382	1	10	-25	PA	loss	loss1	33
42	1017	2.344	1	4	-15	PA	loss	loss1	34
42	1017	1.845	1	2	-5	PA	loss	loss1	35
42	1017	5.653	1	6	-25	PA	loss	loss1	36
42	1017	3.349	0	6	-10	PA	loss	loss1	37
42	1017	2.465	0	4	-5	PA	loss	loss1	38
42	1017	2.88	1	10	-20	PA	loss	loss1	39
42	1017	1.599	1	4	-20	PA	loss	loss1	40
42	1017	2.201	1	10	-15	PA	loss	loss1	41
42	1017	1.811	0	6	-5	PA	loss	loss1	42
42	1017	3.245	1	6	-15	PA	loss	loss1	43
42	1017	2.277	1	2	-20	PA	loss	loss1	44
42	1017	1.724	1	2	-10	PA	loss	loss1	45
42	1017	1.545	1	4	-10	PA	loss	loss1	46
42	1017	1.421	1	2	-25	PA	loss	loss1	47
42	1017	2.141	0	10	-5	PA	loss	loss1	48
42	1017	15.906	1	6	-20	PA	loss	loss1	49
42	1017	1.663	0	8	-10	PA	loss	loss1	50
46	1018	1.361	1	2	-10	PA	loss	loss1	1
46	1018	0.653	1	6	-5	PA	loss	loss1	2
46	1018	0.582	1	2	-20	PA	loss	loss1	3
46	1018	0.624	1	2	-15	PA	loss	loss1	4
46	1018	0.503	1	4	-25	PA	loss	loss1	5
46	1018	0.578	1	6	-20	PA	loss	loss1	6
46	1018	0.576	1	10	-15	PA	loss	loss1	7
46	1018	0.37	1	4	-15	PA	loss	loss1	8
46	1018	0.471	1	8	-25	PA	loss	loss1	9
46	1018	0.433	1	10	-25	PA	loss	loss1	10
46	1018	0.509	1	10	-20	PA	loss	loss1	11
46	1018	0.419	1	4	-10	PA	loss	loss1	12
46	1018	0.57	1	4	-5	PA	loss	loss1	13
46	1018	0.504	1	2	-5	PA	loss	loss1	14
46	1018	3.231	1	6	-10	PA	loss	loss1	15
46	1018	0.363	1	10	-5	PA	loss	loss1	16
46	1018	0.579	1	8	-15	PA	loss	loss1	17
46	1018	1.029	1	8	-5	PA	loss	loss1	18
46	1018	1.284	1	8	-20	PA	loss	loss1	19
46	1018	0.072	1	6	-15	PA	loss	loss1	20
46	1018	1.192	1	10	-10	PA	loss	loss1	21
46	1018	0.698	1	4	-20	PA	loss	loss1	22
46	1018	0.601	1	6	-25	PA	loss	loss1	23
46	1018	0.657	1	2	-25	PA	loss	loss1	24
46	1018	0.5	1	8	-10	PA	loss	loss1	25
46	1018	0.378	1	4	-15	PA	loss	loss1	26
46	1018	1.318	1	8	-15	PA	loss	loss1	27
46	1018	0.128	1	4	-25	PA	loss	loss1	28
46	1018	1.02	1	6	-5	PA	loss	loss1	29
46	1018	1.088	1	2	-5	PA	loss	loss1	30
46	1018	0.684	1	6	-20	PA	loss	loss1	31
46	1018	0.453	1	6	-25	PA	loss	loss1	32
46	1018	0.574	1	2	-15	PA	loss	loss1	33
46	1018	6.992	1	6	-15	PA	loss	loss1	34
46	1018	0.491	1	4	-5	PA	loss	loss1	35
46	1018	0.277	1	8	-20	PA	loss	loss1	36
46	1018	0.562	1	8	-25	PA	loss	loss1	37
46	1018	0.619	1	8	-5	PA	loss	loss1	38
46	1018	0.471	1	10	-20	PA	loss	loss1	39
46	1018	0.446	1	10	-25	PA	loss	loss1	40
46	1018	1.482	1	4	-10	PA	loss	loss1	41
46	1018	1.192	1	2	-25	PA	loss	loss1	42
46	1018	0.018	1	2	-20	PA	loss	loss1	43
46	1018	0.033	1	10	-5	PA	loss	loss1	44
46	1018	0.503	1	4	-20	PA	loss	loss1	45
46	1018	0.048	1	6	-10	PA	loss	loss1	46
46	1018	0.247	1	2	-10	PA	loss	loss1	47
46	1018	0.375	1	10	-10	PA	loss	loss1	48
46	1018	0.354	1	8	-10	PA	loss	loss1	49
46	1018	0.162	1	10	-15	PA	loss	loss1	50
51	1019	2.308	1	4	-15	PA	loss	loss1	1
51	1019	2.592	1	8	-25	PA	loss	loss1	2
51	1019	1.501	1	2	-10	PA	loss	loss1	3
51	1019	1.457	0	8	-10	PA	loss	loss1	4
51	1019	2.271	1	6	-25	PA	loss	loss1	5
51	1019	1.574	1	6	-20	PA	loss	loss1	6
51	1019	0.915	1	4	-25	PA	loss	loss1	7
51	1019	1.592	0	10	-10	PA	loss	loss1	8
51	1019	2.037	1	2	-25	PA	loss	loss1	9
51	1019	1.857	1	4	-20	PA	loss	loss1	10
51	1019	1.538	1	4	-5	PA	loss	loss1	11
51	1019	2.13	0	8	-5	PA	loss	loss1	12
51	1019	2.032	0	10	-20	PA	loss	loss1	13
51	1019	3.3	1	4	-10	PA	loss	loss1	14
51	1019	1.093	0	10	-5	PA	loss	loss1	15
51	1019	0.924	0	8	-15	PA	loss	loss1	16
51	1019	2.074	1	8	-20	PA	loss	loss1	17
51	1019	1.593	0	6	-5	PA	loss	loss1	18
51	1019	1.989	0	10	-15	PA	loss	loss1	19
51	1019	2.319	1	10	-25	PA	loss	loss1	20
51	1019	1.022	1	6	-15	PA	loss	loss1	21
51	1019	1.186	1	2	-5	PA	loss	loss1	22
51	1019	1.327	0	6	-10	PA	loss	loss1	23
51	1019	0.819	1	2	-15	PA	loss	loss1	24
51	1019	0.79	1	2	-20	PA	loss	loss1	25
51	1019	1.77	1	2	-5	PA	loss	loss1	26
51	1019	1.827	1	4	-10	PA	loss	loss1	27
51	1019	6.496	1	8	-20	PA	loss	loss1	28
51	1019	1.329	0	6	-5	PA	loss	loss1	29
51	1019	0.937	1	2	-20	PA	loss	loss1	30
51	1019	1.736	0	10	-15	PA	loss	loss1	31
51	1019	1.227	1	6	-10	PA	loss	loss1	32
51	1019	1.917	1	8	-25	PA	loss	loss1	33
51	1019	1.059	0	10	-25	PA	loss	loss1	34
51	1019	1.153	1	4	-15	PA	loss	loss1	35
51	1019	1.098	0	8	-10	PA	loss	loss1	36
51	1019	0.981	1	2	-10	PA	loss	loss1	37
51	1019	1.356	1	4	-25	PA	loss	loss1	38
51	1019	1.535	0	8	-5	PA	loss	loss1	39
51	1019	1.27	0	10	-20	PA	loss	loss1	40
51	1019	1.72	1	6	-25	PA	loss	loss1	41
51	1019	4.363	1	6	-15	PA	loss	loss1	42
51	1019	1.392	1	6	-20	PA	loss	loss1	43
51	1019	1.313	1	2	-25	PA	loss	loss1	44
51	1019	2.129	0	8	-15	PA	loss	loss1	45
51	1019	1.138	0	10	-5	PA	loss	loss1	46
51	1019	1.109	1	4	-5	PA	loss	loss1	47
51	1019	1.229	0	10	-10	PA	loss	loss1	48
51	1019	1.107	1	4	-20	PA	loss	loss1	49
51	1019	0.892	1	2	-15	PA	loss	loss1	50
52	1020	4.729	1	4	-20	PA	loss	loss1	1
52	1020	1.76	1	10	-10	PA	loss	loss1	2
52	1020	0.943	1	8	-25	PA	loss	loss1	3
52	1020	1.367	1	8	-20	PA	loss	loss1	4
52	1020	3.131	1	10	-15	PA	loss	loss1	5
52	1020	0.94	1	8	-15	PA	loss	loss1	6
52	1020	1.065	1	4	-5	PA	loss	loss1	7
52	1020	1.835	1	4	-10	PA	loss	loss1	8
52	1020	3.405	1	10	-20	PA	loss	loss1	9
52	1020	0.961	1	10	-25	PA	loss	loss1	10
52	1020	0.804	1	4	-15	PA	loss	loss1	11
52	1020	1.885	1	6	-5	PA	loss	loss1	12
52	1020	1.586	1	6	-15	PA	loss	loss1	13
52	1020	2.56	1	6	-20	PA	loss	loss1	14
52	1020	2.179	1	8	-10	PA	loss	loss1	15
52	1020	0.502	1	2	-25	PA	loss	loss1	16
52	1020	0.93	1	2	-20	PA	loss	loss1	17
52	1020	3.544	1	4	-25	PA	loss	loss1	18
52	1020	3.719	1	10	-5	PA	loss	loss1	19
52	1020	1.579	1	8	-5	PA	loss	loss1	20
52	1020	0.42	1	6	-25	PA	loss	loss1	21
52	1020	0.904	1	2	-10	PA	loss	loss1	22
52	1020	0.709	1	2	-5	PA	loss	loss1	23
52	1020	1.914	1	2	-15	PA	loss	loss1	24
52	1020	0.854	1	6	-10	PA	loss	loss1	25
52	1020	0.992	1	2	-20	PA	loss	loss1	26
52	1020	2.045	1	10	-10	PA	loss	loss1	27
52	1020	1.578	1	8	-10	PA	loss	loss1	28
52	1020	7.805	1	10	-20	PA	loss	loss1	29
52	1020	1.053	1	6	-25	PA	loss	loss1	30
52	1020	2.616	1	6	-10	PA	loss	loss1	31
52	1020	0.617	1	6	-5	PA	loss	loss1	32
52	1020	3.316	1	4	-25	PA	loss	loss1	33
52	1020	13.113	1	4	-5	PA	loss	loss1	34
52	1020	2.281	1	4	-10	PA	loss	loss1	35
52	1020	1.491	1	2	-10	PA	loss	loss1	36
52	1020	2.999	1	8	-25	PA	loss	loss1	37
52	1020	0.368	1	2	-25	PA	loss	loss1	38
52	1020	1.491	1	4	-15	PA	loss	loss1	39
52	1020	1.214	1	8	-20	PA	loss	loss1	40
52	1020	1.786	1	2	-5	PA	loss	loss1	41
52	1020	4.936	1	10	-15	PA	loss	loss1	42
52	1020	1.944	1	8	-5	PA	loss	loss1	43
52	1020	3.787	1	10	-25	PA	loss	loss1	44
52	1020	12.792	1	10	-5	PA	loss	loss1	45
52	1020	5.037	1	6	-20	PA	loss	loss1	46
52	1020	1.695	1	4	-20	PA	loss	loss1	47
52	1020	9.777	1	6	-15	PA	loss	loss1	48
52	1020	6.981	1	8	-15	PA	loss	loss1	49
52	1020	5.933	1	2	-15	PA	loss	loss1	50
53	1021	2.352	1	4	-15	PA	loss	loss1	1
53	1021	2.069	1	8	-25	PA	loss	loss1	2
53	1021	0.967	1	8	-20	PA	loss	loss1	3
53	1021	1.28	1	6	-5	PA	loss	loss1	4
53	1021	0.753	1	8	-15	PA	loss	loss1	5
53	1021	1.288	1	10	-10	PA	loss	loss1	6
53	1021	0.929	1	2	-10	PA	loss	loss1	7
53	1021	0.945	1	4	-10	PA	loss	loss1	8
53	1021	0.685	1	2	-15	PA	loss	loss1	9
53	1021	0.38	1	8	-10	PA	loss	loss1	10
53	1021	0.33	1	2	-20	PA	loss	loss1	11
53	1021	1.309	1	8	-5	PA	loss	loss1	12
53	1021	1.274	1	10	-15	PA	loss	loss1	13
53	1021	0.418	1	4	-25	PA	loss	loss1	14
53	1021	1.222	1	6	-25	PA	loss	loss1	15
53	1021	0.814	1	6	-20	PA	loss	loss1	16
53	1021	0.504	1	4	-20	PA	loss	loss1	17
53	1021	0.616	1	2	-5	PA	loss	loss1	18
53	1021	1.045	1	6	-15	PA	loss	loss1	19
53	1021	2.578	1	6	-10	PA	loss	loss1	20
53	1021	0.9	1	10	-25	PA	loss	loss1	21
53	1021	0.929	1	2	-25	PA	loss	loss1	22
53	1021	0.775	1	4	-5	PA	loss	loss1	23
53	1021	1.461	1	10	-20	PA	loss	loss1	24
53	1021	1.604	1	10	-5	PA	loss	loss1	25
53	1021	1.502	1	6	-10	PA	loss	loss1	26
53	1021	0.695	1	8	-25	PA	loss	loss1	27
53	1021	0.732	1	6	-25	PA	loss	loss1	28
53	1021	0.754	1	4	-20	PA	loss	loss1	29
53	1021	0.639	1	10	-10	PA	loss	loss1	30
53	1021	0.783	1	6	-20	PA	loss	loss1	31
53	1021	0.715	1	2	-20	PA	loss	loss1	32
53	1021	1.223	1	8	-15	PA	loss	loss1	33
53	1021	1.357	1	6	-5	PA	loss	loss1	34
53	1021	0.612	1	2	-5	PA	loss	loss1	35
53	1021	0.854	1	8	-5	PA	loss	loss1	36
53	1021	0.574	1	10	-5	PA	loss	loss1	37
53	1021	0.649	1	10	-25	PA	loss	loss1	38
53	1021	0.564	1	4	-10	PA	loss	loss1	39
53	1021	0.829	1	4	-25	PA	loss	loss1	40
53	1021	0.823	1	8	-10	PA	loss	loss1	41
53	1021	0.603	1	4	-5	PA	loss	loss1	42
53	1021	0.644	1	2	-10	PA	loss	loss1	43
53	1021	0.67	1	10	-20	PA	loss	loss1	44
53	1021	0.876	1	10	-15	PA	loss	loss1	45
53	1021	0.354	1	4	-15	PA	loss	loss1	46
53	1021	0.777	1	6	-15	PA	loss	loss1	47
53	1021	0.844	1	2	-25	PA	loss	loss1	48
53	1021	1.098	1	2	-15	PA	loss	loss1	49
53	1021	0.693	1	8	-20	PA	loss	loss1	50
54	1022	3.745	0	6	-5	PA	loss	loss1	1
54	1022	3.221	1	6	-10	PA	loss	loss1	2
54	1022	3.017	1	2	-20	PA	loss	loss1	3
54	1022	1.553	1	2	-10	PA	loss	loss1	4
54	1022	1.658	1	6	-20	PA	loss	loss1	5
54	1022	1.394	0	10	-10	PA	loss	loss1	6
54	1022	1.357	1	2	-25	PA	loss	loss1	7
54	1022	1.698	1	8	-25	PA	loss	loss1	8
54	1022	1.42	1	4	-10	PA	loss	loss1	9
54	1022	5.426	1	8	-15	PA	loss	loss1	10
54	1022	2.528	1	10	-20	PA	loss	loss1	11
54	1022	2.499	1	10	-15	PA	loss	loss1	12
54	1022	1.691	1	2	-15	PA	loss	loss1	13
54	1022	1.373	0	8	-5	PA	loss	loss1	14
54	1022	2.612	1	10	-25	PA	loss	loss1	15
54	1022	1.689	1	2	-5	PA	loss	loss1	16
54	1022	1.818	1	4	-20	PA	loss	loss1	17
54	1022	1.607	1	8	-20	PA	loss	loss1	18
54	1022	1.826	1	4	-5	PA	loss	loss1	19
54	1022	3.189	1	8	-10	PA	loss	loss1	20
54	1022	1.731	0	10	-5	PA	loss	loss1	21
54	1022	2.902	1	4	-15	PA	loss	loss1	22
54	1022	1.555	1	4	-25	PA	loss	loss1	23
54	1022	2.127	1	6	-25	PA	loss	loss1	24
54	1022	3.067	1	6	-15	PA	loss	loss1	25
54	1022	2.197	1	6	-20	PA	loss	loss1	26
54	1022	3.544	1	6	-10	PA	loss	loss1	27
54	1022	3.808	1	4	-15	PA	loss	loss1	28
54	1022	1.932	1	4	-20	PA	loss	loss1	29
54	1022	1.996	1	4	-5	PA	loss	loss1	30
54	1022	1.441	1	10	-20	PA	loss	loss1	31
54	1022	1.732	0	8	-5	PA	loss	loss1	32
54	1022	0.945	1	2	-25	PA	loss	loss1	33
54	1022	2.094	1	6	-15	PA	loss	loss1	34
54	1022	1.653	1	4	-25	PA	loss	loss1	35
54	1022	2.477	1	10	-15	PA	loss	loss1	36
54	1022	1.819	1	8	-20	PA	loss	loss1	37
54	1022	1.595	0	10	-5	PA	loss	loss1	38
54	1022	1.03	1	2	-15	PA	loss	loss1	39
54	1022	1.428	1	10	-25	PA	loss	loss1	40
54	1022	1.704	1	2	-5	PA	loss	loss1	41
54	1022	2.784	1	8	-15	PA	loss	loss1	42
54	1022	3.284	1	6	-25	PA	loss	loss1	43
54	1022	1.651	1	6	-5	PA	loss	loss1	44
54	1022	1.368	0	10	-10	PA	loss	loss1	45
54	1022	1.463	1	2	-20	PA	loss	loss1	46
54	1022	1.287	1	2	-10	PA	loss	loss1	47
54	1022	1.438	1	4	-10	PA	loss	loss1	48
54	1022	1.769	1	8	-25	PA	loss	loss1	49
54	1022	2.817	1	8	-10	PA	loss	loss1	50
55	1023	3.466	1	6	-15	PA	loss	loss1	1
55	1023	2.402	1	4	-15	PA	loss	loss1	2
55	1023	1.025	1	8	-10	PA	loss	loss1	3
55	1023	1.358	1	10	-10	PA	loss	loss1	4
55	1023	1.193	1	8	-20	PA	loss	loss1	5
55	1023	2.344	1	4	-10	PA	loss	loss1	6
55	1023	2.168	1	8	-5	PA	loss	loss1	7
55	1023	2.989	1	10	-20	PA	loss	loss1	8
55	1023	1.656	1	4	-25	PA	loss	loss1	9
55	1023	1.492	1	6	-10	PA	loss	loss1	10
55	1023	0.861	1	6	-20	PA	loss	loss1	11
55	1023	1.236	1	2	-15	PA	loss	loss1	12
55	1023	1.068	1	2	-25	PA	loss	loss1	13
55	1023	1.246	1	6	-25	PA	loss	loss1	14
55	1023	1.685	1	10	-5	PA	loss	loss1	15
55	1023	1.212	1	2	-20	PA	loss	loss1	16
55	1023	0.642	1	6	-5	PA	loss	loss1	17
55	1023	0.595	1	8	-25	PA	loss	loss1	18
55	1023	0.115	1	10	-25	PA	loss	loss1	19
55	1023	3.46	1	4	-20	PA	loss	loss1	20
55	1023	1.703	1	10	-15	PA	loss	loss1	21
55	1023	2.038	1	2	-5	PA	loss	loss1	22
55	1023	2.413	1	4	-5	PA	loss	loss1	23
55	1023	1.529	1	2	-10	PA	loss	loss1	24
55	1023	2.818	0	8	-15	PA	loss	loss1	25
55	1023	2.696	0	8	-10	PA	loss	loss1	26
55	1023	2.012	0	10	-5	PA	loss	loss1	27
55	1023	2.147	1	2	-25	PA	loss	loss1	28
55	1023	1.574	1	2	-15	PA	loss	loss1	29
55	1023	2.083	1	6	-25	PA	loss	loss1	30
55	1023	2.318	0	10	-25	PA	loss	loss1	31
55	1023	1.871	0	10	-10	PA	loss	loss1	32
55	1023	2.604	1	6	-20	PA	loss	loss1	33
55	1023	2.688	1	8	-20	PA	loss	loss1	34
55	1023	2.139	1	6	-15	PA	loss	loss1	35
55	1023	1.374	1	2	-5	PA	loss	loss1	36
55	1023	1.311	1	2	-10	PA	loss	loss1	37
55	1023	1.427	1	2	-20	PA	loss	loss1	38
55	1023	3.556	1	8	-25	PA	loss	loss1	39
55	1023	1.893	1	8	-15	PA	loss	loss1	40
55	1023	1.596	1	4	-25	PA	loss	loss1	41
55	1023	0.999	1	4	-10	PA	loss	loss1	42
55	1023	0.942	1	4	-20	PA	loss	loss1	43
55	1023	1.671	0	10	-15	PA	loss	loss1	44
55	1023	2.153	0	8	-5	PA	loss	loss1	45
55	1023	1.336	1	4	-15	PA	loss	loss1	46
55	1023	2.066	0	10	-20	PA	loss	loss1	47
55	1023	1.196	1	4	-5	PA	loss	loss1	48
55	1023	2.176	1	6	-5	PA	loss	loss1	49
55	1023	1.865	1	6	-10	PA	loss	loss1	50
15	1024	3.083	1	2	-10	PA	loss	loss1	1
15	1024	1.818	0	6	-5	PA	loss	loss1	2
15	1024	1.819	0	8	-10	PA	loss	loss1	3
15	1024	1.389	1	6	-15	PA	loss	loss1	4
15	1024	2.631	0	8	-5	PA	loss	loss1	5
15	1024	0.896	1	2	-5	PA	loss	loss1	6
15	1024	1.118	1	6	-25	PA	loss	loss1	7
15	1024	1.003	1	4	-15	PA	loss	loss1	8
15	1024	1.029	1	4	-25	PA	loss	loss1	9
15	1024	1.894	1	8	-15	PA	loss	loss1	10
15	1024	1.268	1	8	-25	PA	loss	loss1	11
15	1024	1.148	1	6	-20	PA	loss	loss1	12
15	1024	1.144	1	4	-10	PA	loss	loss1	13
15	1024	0.844	0	10	-15	PA	loss	loss1	14
15	1024	1.532	0	6	-10	PA	loss	loss1	15
15	1024	1.361	1	4	-20	PA	loss	loss1	16
15	1024	2.428	1	10	-25	PA	loss	loss1	17
15	1024	1.229	0	10	-10	PA	loss	loss1	18
15	1024	1.918	0	4	-5	PA	loss	loss1	19
15	1024	0.899	1	2	-25	PA	loss	loss1	20
15	1024	0.984	0	10	-20	PA	loss	loss1	21
15	1024	1.604	1	8	-20	PA	loss	loss1	22
15	1024	1.117	1	2	-20	PA	loss	loss1	23
15	1024	1.179	0	10	-5	PA	loss	loss1	24
15	1024	1.254	1	2	-15	PA	loss	loss1	25
15	1024	0.916	0	8	-5	PA	loss	loss1	26
15	1024	0.85	0	8	-15	PA	loss	loss1	27
15	1024	1.178	1	6	-10	PA	loss	loss1	28
15	1024	1.597	1	8	-20	PA	loss	loss1	29
15	1024	0.807	1	2	-25	PA	loss	loss1	30
15	1024	1.552	1	6	-20	PA	loss	loss1	31
15	1024	0.749	1	4	-15	PA	loss	loss1	32
15	1024	1.025	0	10	-5	PA	loss	loss1	33
15	1024	0.721	0	10	-25	PA	loss	loss1	34
15	1024	0.647	1	2	-10	PA	loss	loss1	35
15	1024	1.103	1	4	-10	PA	loss	loss1	36
15	1024	1.061	0	6	-5	PA	loss	loss1	37
15	1024	0.965	0	10	-15	PA	loss	loss1	38
15	1024	2.208	1	8	-25	PA	loss	loss1	39
15	1024	1.074	0	10	-20	PA	loss	loss1	40
15	1024	1.152	1	6	-25	PA	loss	loss1	41
15	1024	0.9	1	2	-15	PA	loss	loss1	42
15	1024	0.715	1	2	-20	PA	loss	loss1	43
15	1024	1.016	0	8	-10	PA	loss	loss1	44
15	1024	0.681	1	4	-20	PA	loss	loss1	45
15	1024	0.808	0	10	-10	PA	loss	loss1	46
15	1024	1.018	0	4	-5	PA	loss	loss1	47
15	1024	0.963	1	2	-5	PA	loss	loss1	48
15	1024	0.727	1	4	-25	PA	loss	loss1	49
15	1024	1.171	1	6	-15	PA	loss	loss1	50
36	1025	6.76	1	10	-10	PA	loss	loss1	1
36	1025	1.211	1	6	-20	PA	loss	loss1	2
36	1025	1.293	1	10	-15	PA	loss	loss1	3
36	1025	1.131	1	6	-10	PA	loss	loss1	4
36	1025	1.256	1	2	-15	PA	loss	loss1	5
36	1025	1.263	1	4	-5	PA	loss	loss1	6
36	1025	0.87	1	4	-10	PA	loss	loss1	7
36	1025	0.782	1	2	-5	PA	loss	loss1	8
36	1025	0.585	1	2	-20	PA	loss	loss1	9
36	1025	2.643	1	10	-5	PA	loss	loss1	10
36	1025	1.18	1	4	-25	PA	loss	loss1	11
36	1025	1.214	1	8	-25	PA	loss	loss1	12
36	1025	1.568	1	8	-10	PA	loss	loss1	13
36	1025	1.227	1	2	-10	PA	loss	loss1	14
36	1025	1.308	1	6	-5	PA	loss	loss1	15
36	1025	1.153	1	8	-15	PA	loss	loss1	16
36	1025	1.429	1	8	-5	PA	loss	loss1	17
36	1025	3.934	1	10	-20	PA	loss	loss1	18
36	1025	1.771	1	6	-25	PA	loss	loss1	19
36	1025	0.526	1	8	-20	PA	loss	loss1	20
36	1025	1.211	1	4	-15	PA	loss	loss1	21
36	1025	1.325	1	4	-20	PA	loss	loss1	22
36	1025	1.865	1	10	-25	PA	loss	loss1	23
36	1025	1.001	1	2	-25	PA	loss	loss1	24
36	1025	0.899	1	6	-15	PA	loss	loss1	25
36	1025	1.198	1	4	-10	PA	loss	loss1	26
36	1025	0.96	1	2	-15	PA	loss	loss1	27
36	1025	0.38	1	6	-20	PA	loss	loss1	28
36	1025	3.063	1	10	-5	PA	loss	loss1	29
36	1025	1.422	1	4	-5	PA	loss	loss1	30
36	1025	2.015	1	10	-20	PA	loss	loss1	31
36	1025	1.161	1	6	-15	PA	loss	loss1	32
36	1025	0.588	1	2	-20	PA	loss	loss1	33
36	1025	1.175	1	8	-15	PA	loss	loss1	34
36	1025	1.41	1	6	-25	PA	loss	loss1	35
36	1025	1.139	1	6	-10	PA	loss	loss1	36
36	1025	1.255	1	8	-5	PA	loss	loss1	37
36	1025	1.255	1	10	-10	PA	loss	loss1	38
36	1025	0.88	1	4	-20	PA	loss	loss1	39
36	1025	0.927	1	10	-25	PA	loss	loss1	40
36	1025	0.812	1	8	-20	PA	loss	loss1	41
36	1025	0.404	1	2	-5	PA	loss	loss1	42
36	1025	0.863	1	4	-25	PA	loss	loss1	43
36	1025	0.702	1	4	-15	PA	loss	loss1	44
36	1025	1.197	1	8	-10	PA	loss	loss1	45
36	1025	1.191	1	2	-10	PA	loss	loss1	46
36	1025	0.649	1	8	-25	PA	loss	loss1	47
36	1025	1.801	1	6	-5	PA	loss	loss1	48
36	1025	1.435	1	10	-15	PA	loss	loss1	49
36	1025	1.316	1	2	-25	PA	loss	loss1	50
38	1026	2.813	1	2	-15	PA	loss	loss1	1
38	1026	1.238	1	6	-15	PA	loss	loss1	2
38	1026	2.006	0	8	-5	PA	loss	loss1	3
38	1026	1.376	1	10	-10	PA	loss	loss1	4
38	1026	1.419	1	2	-20	PA	loss	loss1	5
38	1026	0.845	1	4	-15	PA	loss	loss1	6
38	1026	0.789	1	6	-20	PA	loss	loss1	7
38	1026	1.071	1	10	-20	PA	loss	loss1	8
38	1026	1.566	1	6	-10	PA	loss	loss1	9
38	1026	1.705	1	2	-5	PA	loss	loss1	10
38	1026	1.271	1	6	-5	PA	loss	loss1	11
38	1026	1.549	0	10	-5	PA	loss	loss1	12
38	1026	1.113	1	2	-10	PA	loss	loss1	13
38	1026	1.415	1	8	-20	PA	loss	loss1	14
38	1026	1.008	1	4	-25	PA	loss	loss1	15
38	1026	1.282	1	6	-25	PA	loss	loss1	16
38	1026	1.009	1	4	-10	PA	loss	loss1	17
38	1026	1.554	1	10	-15	PA	loss	loss1	18
38	1026	1.454	1	8	-25	PA	loss	loss1	19
38	1026	1.062	1	4	-20	PA	loss	loss1	20
38	1026	1.102	1	10	-25	PA	loss	loss1	21
38	1026	2.164	1	4	-5	PA	loss	loss1	22
38	1026	1.311	1	2	-25	PA	loss	loss1	23
38	1026	0.74	1	8	-15	PA	loss	loss1	24
38	1026	1.152	1	8	-10	PA	loss	loss1	25
38	1026	1.397	1	10	-20	PA	loss	loss1	26
38	1026	1.519	1	10	-10	PA	loss	loss1	27
38	1026	1.196	1	8	-15	PA	loss	loss1	28
38	1026	0.926	1	2	-5	PA	loss	loss1	29
38	1026	1.179	1	4	-10	PA	loss	loss1	30
38	1026	1.245	1	10	-25	PA	loss	loss1	31
38	1026	1.717	1	4	-15	PA	loss	loss1	32
38	1026	1.386	1	4	-5	PA	loss	loss1	33
38	1026	1.133	1	6	-25	PA	loss	loss1	34
38	1026	1.609	1	6	-5	PA	loss	loss1	35
38	1026	1.027	1	8	-20	PA	loss	loss1	36
38	1026	1.116	1	8	-25	PA	loss	loss1	37
38	1026	1.753	0	8	-10	PA	loss	loss1	38
38	1026	1.341	1	4	-20	PA	loss	loss1	39
38	1026	1.224	1	2	-10	PA	loss	loss1	40
38	1026	1.193	1	2	-20	PA	loss	loss1	41
38	1026	1.692	1	6	-20	PA	loss	loss1	42
38	1026	1.873	1	6	-15	PA	loss	loss1	43
38	1026	1.12	0	8	-5	PA	loss	loss1	44
38	1026	0.774	1	2	-15	PA	loss	loss1	45
38	1026	1.184	0	10	-5	PA	loss	loss1	46
38	1026	1.139	1	4	-25	PA	loss	loss1	47
38	1026	2.247	1	10	-15	PA	loss	loss1	48
38	1026	1.375	1	6	-10	PA	loss	loss1	49
38	1026	0.962	1	2	-25	PA	loss	loss1	50
39	1027	2.865	1	10	-5	PA	loss	loss1	1
39	1027	1.127	1	2	-10	PA	loss	loss1	2
39	1027	2.22	1	6	-10	PA	loss	loss1	3
39	1027	1.629	1	6	-15	PA	loss	loss1	4
39	1027	1.334	1	4	-25	PA	loss	loss1	5
39	1027	0.867	1	10	-15	PA	loss	loss1	6
39	1027	1.018	1	6	-25	PA	loss	loss1	7
39	1027	0.828	1	8	-15	PA	loss	loss1	8
39	1027	0.917	1	8	-10	PA	loss	loss1	9
39	1027	0.882	1	4	-20	PA	loss	loss1	10
39	1027	1.013	1	10	-25	PA	loss	loss1	11
39	1027	0.91	1	4	-15	PA	loss	loss1	12
39	1027	1.259	1	8	-25	PA	loss	loss1	13
39	1027	0.843	1	4	-10	PA	loss	loss1	14
39	1027	5.451	1	10	-20	PA	loss	loss1	15
39	1027	1.371	1	2	-20	PA	loss	loss1	16
39	1027	3.702	1	6	-20	PA	loss	loss1	17
39	1027	0.876	1	2	-15	PA	loss	loss1	18
39	1027	2.707	1	8	-5	PA	loss	loss1	19
39	1027	0.961	1	4	-5	PA	loss	loss1	20
39	1027	2.076	1	2	-25	PA	loss	loss1	21
39	1027	1.715	1	8	-20	PA	loss	loss1	22
39	1027	1.64	1	2	-5	PA	loss	loss1	23
39	1027	1.601	1	10	-10	PA	loss	loss1	24
39	1027	1.355	1	6	-5	PA	loss	loss1	25
39	1027	1.354	1	6	-15	PA	loss	loss1	26
39	1027	1.198	1	2	-25	PA	loss	loss1	27
39	1027	1.328	1	8	-25	PA	loss	loss1	28
39	1027	0.705	1	2	-20	PA	loss	loss1	29
39	1027	0.887	1	6	-25	PA	loss	loss1	30
39	1027	1.141	1	10	-15	PA	loss	loss1	31
39	1027	0.882	1	8	-5	PA	loss	loss1	32
39	1027	1.113	1	4	-10	PA	loss	loss1	33
39	1027	4.087	1	10	-10	PA	loss	loss1	34
39	1027	0.875	1	4	-5	PA	loss	loss1	35
39	1027	0.762	1	2	-10	PA	loss	loss1	36
39	1027	0.774	1	8	-20	PA	loss	loss1	37
39	1027	3.824	1	8	-10	PA	loss	loss1	38
39	1027	1.193	1	10	-20	PA	loss	loss1	39
39	1027	1.315	1	4	-15	PA	loss	loss1	40
39	1027	0.769	1	2	-15	PA	loss	loss1	41
39	1027	1.012	1	2	-5	PA	loss	loss1	42
39	1027	1.822	1	10	-5	PA	loss	loss1	43
39	1027	1.599	1	4	-25	PA	loss	loss1	44
39	1027	1.089	1	6	-10	PA	loss	loss1	45
39	1027	0.888	1	4	-20	PA	loss	loss1	46
39	1027	1.238	1	8	-15	PA	loss	loss1	47
39	1027	0.822	1	6	-20	PA	loss	loss1	48
39	1027	1.16	1	6	-5	PA	loss	loss1	49
39	1027	1.114	1	10	-25	PA	loss	loss1	50
43	1028	1.447	1	4	-15	PA	loss	loss1	1
43	1028	1.877	1	2	-25	PA	loss	loss1	2
43	1028	0.665	1	4	-20	PA	loss	loss1	3
43	1028	1.438	1	8	-15	PA	loss	loss1	4
43	1028	0.736	1	6	-20	PA	loss	loss1	5
43	1028	2.483	0	6	-5	PA	loss	loss1	6
43	1028	2.793	1	10	-15	PA	loss	loss1	7
43	1028	0.907	0	10	-5	PA	loss	loss1	8
43	1028	6.073	1	8	-20	PA	loss	loss1	9
43	1028	0.9	1	2	-20	PA	loss	loss1	10
43	1028	1.393	0	8	-5	PA	loss	loss1	11
43	1028	0.668	1	6	-15	PA	loss	loss1	12
43	1028	0.922	1	2	-5	PA	loss	loss1	13
43	1028	0.658	1	8	-25	PA	loss	loss1	14
43	1028	0.907	1	10	-20	PA	loss	loss1	15
43	1028	1.139	1	6	-10	PA	loss	loss1	16
43	1028	0.798	1	6	-25	PA	loss	loss1	17
43	1028	0.824	1	2	-10	PA	loss	loss1	18
43	1028	0.767	1	4	-5	PA	loss	loss1	19
43	1028	2.571	1	8	-10	PA	loss	loss1	20
43	1028	0.667	1	2	-15	PA	loss	loss1	21
43	1028	2.279	1	10	-10	PA	loss	loss1	22
43	1028	0.75	1	4	-25	PA	loss	loss1	23
43	1028	0.844	1	4	-10	PA	loss	loss1	24
43	1028	0.657	1	10	-25	PA	loss	loss1	25
43	1028	1.379	1	6	-5	PA	loss	loss1	26
43	1028	0.724	1	2	-20	PA	loss	loss1	27
43	1028	0.813	1	8	-10	PA	loss	loss1	28
43	1028	2.147	1	4	-25	PA	loss	loss1	29
43	1028	1.078	0	8	-5	PA	loss	loss1	30
43	1028	2.067	1	6	-10	PA	loss	loss1	31
43	1028	0.83	1	4	-5	PA	loss	loss1	32
43	1028	0.688	1	4	-20	PA	loss	loss1	33
43	1028	0.895	1	2	-5	PA	loss	loss1	34
43	1028	0.872	1	10	-20	PA	loss	loss1	35
43	1028	0.831	1	4	-10	PA	loss	loss1	36
43	1028	0.792	1	8	-15	PA	loss	loss1	37
43	1028	0.597	1	8	-25	PA	loss	loss1	38
43	1028	0.658	1	6	-20	PA	loss	loss1	39
43	1028	0.712	1	6	-25	PA	loss	loss1	40
43	1028	3.192	0	10	-10	PA	loss	loss1	41
43	1028	0.806	1	4	-15	PA	loss	loss1	42
43	1028	1.664	1	6	-15	PA	loss	loss1	43
43	1028	0.785	1	2	-10	PA	loss	loss1	44
43	1028	0.673	1	10	-25	PA	loss	loss1	45
43	1028	0.872	1	2	-25	PA	loss	loss1	46
43	1028	0.645	1	8	-20	PA	loss	loss1	47
43	1028	0.911	1	2	-15	PA	loss	loss1	48
43	1028	1.336	1	10	-15	PA	loss	loss1	49
43	1028	0.944	0	10	-5	PA	loss	loss1	50
58	1029	4.01	1	10	-15	PA	loss	loss1	1
58	1029	0.811	1	6	-25	PA	loss	loss1	2
58	1029	1.684	1	10	-25	PA	loss	loss1	3
58	1029	0.899	1	8	-5	PA	loss	loss1	4
58	1029	0.777	1	6	-5	PA	loss	loss1	5
58	1029	0.724	1	4	-10	PA	loss	loss1	6
58	1029	0.689	1	6	-15	PA	loss	loss1	7
58	1029	0.631	1	4	-20	PA	loss	loss1	8
58	1029	0.583	1	2	-20	PA	loss	loss1	9
58	1029	0.681	1	6	-10	PA	loss	loss1	10
58	1029	0.759	1	8	-10	PA	loss	loss1	11
58	1029	0.498	1	8	-15	PA	loss	loss1	12
58	1029	0.48	1	8	-25	PA	loss	loss1	13
58	1029	0.919	1	4	-5	PA	loss	loss1	14
58	1029	0.564	1	2	-15	PA	loss	loss1	15
58	1029	5.527	1	10	-10	PA	loss	loss1	16
58	1029	0.599	1	10	-5	PA	loss	loss1	17
58	1029	0.744	1	2	-25	PA	loss	loss1	18
58	1029	0.877	1	2	-5	PA	loss	loss1	19
58	1029	0.899	1	2	-10	PA	loss	loss1	20
58	1029	0.625	1	8	-20	PA	loss	loss1	21
58	1029	0.578	1	6	-20	PA	loss	loss1	22
58	1029	0.604	1	10	-20	PA	loss	loss1	23
58	1029	0.596	1	4	-15	PA	loss	loss1	24
58	1029	1.206	1	4	-25	PA	loss	loss1	25
58	1029	0.869	1	8	-20	PA	loss	loss1	26
58	1029	0.578	1	2	-15	PA	loss	loss1	27
58	1029	1.293	1	4	-5	PA	loss	loss1	28
58	1029	1.219	1	8	-15	PA	loss	loss1	29
58	1029	0.54	1	4	-15	PA	loss	loss1	30
58	1029	2.216	1	8	-5	PA	loss	loss1	31
58	1029	0.626	1	6	-20	PA	loss	loss1	32
58	1029	0.619	1	10	-25	PA	loss	loss1	33
58	1029	0.804	1	8	-10	PA	loss	loss1	34
58	1029	0.494	1	4	-10	PA	loss	loss1	35
58	1029	0.596	1	6	-10	PA	loss	loss1	36
58	1029	0.678	1	6	-25	PA	loss	loss1	37
58	1029	1.221	1	2	-10	PA	loss	loss1	38
58	1029	0.63	1	10	-20	PA	loss	loss1	39
58	1029	0.475	1	6	-15	PA	loss	loss1	40
58	1029	0.634	1	10	-15	PA	loss	loss1	41
58	1029	0.466	1	10	-10	PA	loss	loss1	42
58	1029	0.716	1	2	-5	PA	loss	loss1	43
58	1029	0.666	1	4	-25	PA	loss	loss1	44
58	1029	0.593	1	2	-20	PA	loss	loss1	45
58	1029	0.643	1	4	-20	PA	loss	loss1	46
58	1029	0.572	1	2	-25	PA	loss	loss1	47
58	1029	0.583	1	6	-5	PA	loss	loss1	48
58	1029	1.146	1	10	-5	PA	loss	loss1	49
58	1029	0.85	1	8	-25	PA	loss	loss1	50
64	1030	3.461	1	2	-15	PA	loss	loss1	1
64	1030	1.317	0	8	-5	PA	loss	loss1	2
64	1030	1.354	0	10	-10	PA	loss	loss1	3
64	1030	1.694	0	6	-5	PA	loss	loss1	4
64	1030	0.996	1	8	-15	PA	loss	loss1	5
64	1030	1.101	1	6	-25	PA	loss	loss1	6
64	1030	0.902	1	6	-20	PA	loss	loss1	7
64	1030	0.86	1	2	-10	PA	loss	loss1	8
64	1030	0.843	1	4	-15	PA	loss	loss1	9
64	1030	0.891	1	4	-10	PA	loss	loss1	10
64	1030	1.09	0	10	-5	PA	loss	loss1	11
64	1030	1.936	1	10	-25	PA	loss	loss1	12
64	1030	0.81	1	2	-25	PA	loss	loss1	13
64	1030	1.096	1	4	-5	PA	loss	loss1	14
64	1030	0.798	1	4	-20	PA	loss	loss1	15
64	1030	1.981	1	10	-20	PA	loss	loss1	16
64	1030	0.911	1	6	-15	PA	loss	loss1	17
64	1030	1.436	0	10	-15	PA	loss	loss1	18
64	1030	1.789	1	8	-10	PA	loss	loss1	19
64	1030	0.75	1	4	-25	PA	loss	loss1	20
64	1030	1.361	1	8	-25	PA	loss	loss1	21
64	1030	1.246	1	2	-5	PA	loss	loss1	22
64	1030	1.022	1	6	-10	PA	loss	loss1	23
64	1030	1.247	1	8	-20	PA	loss	loss1	24
64	1030	0.813	1	2	-20	PA	loss	loss1	25
64	1030	1.053	1	2	-5	PA	loss	loss1	26
64	1030	1.845	0	10	-15	PA	loss	loss1	27
64	1030	4.525	0	8	-10	PA	loss	loss1	28
64	1030	1.338	0	10	-10	PA	loss	loss1	29
64	1030	0.983	0	8	-5	PA	loss	loss1	30
64	1030	1.201	0	4	-5	PA	loss	loss1	31
64	1030	2.259	1	6	-25	PA	loss	loss1	32
64	1030	0.736	1	6	-5	PA	loss	loss1	33
64	1030	0.595	1	8	-15	PA	loss	loss1	34
64	1030	1.042	1	8	-25	PA	loss	loss1	35
64	1030	0.522	1	4	-20	PA	loss	loss1	36
64	1030	1.403	0	6	-10	PA	loss	loss1	37
64	1030	0.813	1	10	-25	PA	loss	loss1	38
64	1030	0.862	1	4	-10	PA	loss	loss1	39
64	1030	0.743	1	4	-25	PA	loss	loss1	40
64	1030	1.66	1	8	-20	PA	loss	loss1	41
64	1030	1.44	1	6	-15	PA	loss	loss1	42
64	1030	1.08	1	2	-25	PA	loss	loss1	43
64	1030	0.671	1	2	-10	PA	loss	loss1	44
64	1030	0.911	0	10	-5	PA	loss	loss1	45
64	1030	0.78	1	6	-20	PA	loss	loss1	46
64	1030	0.839	1	2	-20	PA	loss	loss1	47
64	1030	0.815	1	10	-20	PA	loss	loss1	48
64	1030	1.352	1	2	-15	PA	loss	loss1	49
64	1030	0.612	1	4	-15	PA	loss	loss1	50
65	1031	1.539	1	2	-5	PA	loss	loss1	1
65	1031	0.927	1	4	-15	PA	loss	loss1	2
65	1031	0.844	1	6	-20	PA	loss	loss1	3
65	1031	0.852	1	6	-10	PA	loss	loss1	4
65	1031	0.892	1	10	-25	PA	loss	loss1	5
65	1031	0.794	1	6	-25	PA	loss	loss1	6
65	1031	0.547	1	10	-20	PA	loss	loss1	7
65	1031	0.943	1	2	-25	PA	loss	loss1	8
65	1031	0.643	1	8	-20	PA	loss	loss1	9
65	1031	0.819	1	4	-5	PA	loss	loss1	10
65	1031	0.803	1	4	-10	PA	loss	loss1	11
65	1031	0.647	1	8	-25	PA	loss	loss1	12
65	1031	1.599	1	8	-10	PA	loss	loss1	13
65	1031	0.633	1	8	-15	PA	loss	loss1	14
65	1031	0.914	1	2	-15	PA	loss	loss1	15
65	1031	0.767	1	8	-5	PA	loss	loss1	16
65	1031	1.274	1	6	-15	PA	loss	loss1	17
65	1031	1.145	1	6	-5	PA	loss	loss1	18
65	1031	0.949	1	10	-5	PA	loss	loss1	19
65	1031	0.641	1	10	-15	PA	loss	loss1	20
65	1031	0.626	1	2	-20	PA	loss	loss1	21
65	1031	0.642	1	2	-10	PA	loss	loss1	22
65	1031	1.05	1	10	-10	PA	loss	loss1	23
65	1031	1.082	1	4	-20	PA	loss	loss1	24
65	1031	0.457	1	4	-25	PA	loss	loss1	25
65	1031	0.927	1	10	-10	PA	loss	loss1	26
65	1031	0.549	1	2	-10	PA	loss	loss1	27
65	1031	0.169	1	2	-20	PA	loss	loss1	28
65	1031	0.268	1	6	-10	PA	loss	loss1	29
65	1031	0.628	1	6	-5	PA	loss	loss1	30
65	1031	0.892	1	8	-15	PA	loss	loss1	31
65	1031	1.115	1	2	-15	PA	loss	loss1	32
65	1031	0.743	1	6	-25	PA	loss	loss1	33
65	1031	1.356	1	8	-20	PA	loss	loss1	34
65	1031	1.424	1	10	-20	PA	loss	loss1	35
65	1031	0.504	1	10	-25	PA	loss	loss1	36
65	1031	0.645	1	6	-20	PA	loss	loss1	37
65	1031	0.766	1	4	-5	PA	loss	loss1	38
65	1031	0.226	1	8	-10	PA	loss	loss1	39
65	1031	0.867	1	8	-25	PA	loss	loss1	40
65	1031	0.554	1	10	-5	PA	loss	loss1	41
65	1031	0.422	1	8	-5	PA	loss	loss1	42
65	1031	0.878	1	4	-15	PA	loss	loss1	43
65	1031	0.966	1	4	-25	PA	loss	loss1	44
65	1031	1.377	1	4	-10	PA	loss	loss1	45
65	1031	0.812	1	2	-5	PA	loss	loss1	46
65	1031	1.022	1	2	-25	PA	loss	loss1	47
65	1031	1.134	1	6	-15	PA	loss	loss1	48
65	1031	0.627	1	10	-15	PA	loss	loss1	49
65	1031	0.388	1	4	-20	PA	loss	loss1	50
67	1032	2.122	1	4	-5	PA	loss	loss1	1
67	1032	0.511	1	6	-20	PA	loss	loss1	2
67	1032	2.751	1	8	-10	PA	loss	loss1	3
67	1032	6.638	1	6	-10	PA	loss	loss1	4
67	1032	2.214	1	2	-5	PA	loss	loss1	5
67	1032	0.74	1	8	-15	PA	loss	loss1	6
67	1032	2.667	1	10	-15	PA	loss	loss1	7
67	1032	1.419	1	8	-5	PA	loss	loss1	8
67	1032	1.755	1	4	-10	PA	loss	loss1	9
67	1032	2.271	1	6	-25	PA	loss	loss1	10
67	1032	2.255	1	8	-20	PA	loss	loss1	11
67	1032	2.305	1	4	-20	PA	loss	loss1	12
67	1032	1.883	1	8	-25	PA	loss	loss1	13
67	1032	1.835	1	2	-20	PA	loss	loss1	14
67	1032	1.551	1	2	-15	PA	loss	loss1	15
67	1032	2.41	1	10	-10	PA	loss	loss1	16
67	1032	1.822	1	10	-25	PA	loss	loss1	17
67	1032	2.318	1	10	-20	PA	loss	loss1	18
67	1032	3.581	1	10	-5	PA	loss	loss1	19
67	1032	2.21	1	4	-15	PA	loss	loss1	20
67	1032	1.409	1	6	-15	PA	loss	loss1	21
67	1032	0.629	1	4	-25	PA	loss	loss1	22
67	1032	0.581	1	6	-5	PA	loss	loss1	23
67	1032	0.573	1	2	-25	PA	loss	loss1	24
67	1032	1.705	1	2	-10	PA	loss	loss1	25
67	1032	1.632	1	8	-10	PA	loss	loss1	26
67	1032	1.23	1	10	-10	PA	loss	loss1	27
67	1032	1.804	1	8	-15	PA	loss	loss1	28
67	1032	3.33	1	10	-20	PA	loss	loss1	29
67	1032	1.454	1	8	-20	PA	loss	loss1	30
67	1032	0.79	1	2	-5	PA	loss	loss1	31
67	1032	0.715	1	8	-5	PA	loss	loss1	32
67	1032	0.615	1	4	-10	PA	loss	loss1	33
67	1032	0.541	1	4	-5	PA	loss	loss1	34
67	1032	0.736	1	2	-15	PA	loss	loss1	35
67	1032	0.669	1	6	-10	PA	loss	loss1	36
67	1032	0.613	1	8	-25	PA	loss	loss1	37
67	1032	0.611	1	2	-20	PA	loss	loss1	38
67	1032	0.44	1	2	-25	PA	loss	loss1	39
67	1032	2.533	1	4	-15	PA	loss	loss1	40
67	1032	0.952	1	10	-25	PA	loss	loss1	41
67	1032	0.639	1	6	-5	PA	loss	loss1	42
67	1032	0.53	1	6	-15	PA	loss	loss1	43
67	1032	0.812	1	2	-10	PA	loss	loss1	44
67	1032	1.408	1	6	-20	PA	loss	loss1	45
67	1032	0.516	1	6	-25	PA	loss	loss1	46
67	1032	1.401	1	4	-20	PA	loss	loss1	47
67	1032	1.765	1	4	-25	PA	loss	loss1	48
67	1032	1.616	1	10	-5	PA	loss	loss1	49
67	1032	4.278	1	10	-15	PA	loss	loss1	50
68	1033	3.766	0	8	-5	PA	loss	loss1	1
68	1033	1.387	1	6	-25	PA	loss	loss1	2
68	1033	0.909	0	8	-10	PA	loss	loss1	3
68	1033	0.578	1	4	-20	PA	loss	loss1	4
68	1033	1.441	1	8	-25	PA	loss	loss1	5
68	1033	1.258	1	2	-20	PA	loss	loss1	6
68	1033	0.621	1	2	-25	PA	loss	loss1	7
68	1033	0.462	1	2	-15	PA	loss	loss1	8
68	1033	1.049	1	4	-25	PA	loss	loss1	9
68	1033	1.726	1	4	-10	PA	loss	loss1	10
68	1033	1.777	1	2	-10	PA	loss	loss1	11
68	1033	1.172	1	6	-10	PA	loss	loss1	12
68	1033	1.073	0	4	-5	PA	loss	loss1	13
68	1033	0.527	1	6	-15	PA	loss	loss1	14
68	1033	0.948	1	10	-20	PA	loss	loss1	15
68	1033	0.556	1	8	-20	PA	loss	loss1	16
68	1033	2.087	0	10	-5	PA	loss	loss1	17
68	1033	0.677	1	8	-15	PA	loss	loss1	18
68	1033	0.525	1	6	-20	PA	loss	loss1	19
68	1033	0.509	1	10	-10	PA	loss	loss1	20
68	1033	0.495	1	10	-25	PA	loss	loss1	21
68	1033	0.684	0	2	-5	PA	loss	loss1	22
68	1033	0.862	1	4	-15	PA	loss	loss1	23
68	1033	0.739	1	10	-15	PA	loss	loss1	24
68	1033	2.736	0	6	-5	PA	loss	loss1	25
68	1033	0.822	1	6	-20	PA	loss	loss1	26
68	1033	1.09	0	4	-5	PA	loss	loss1	27
68	1033	0.519	1	10	-15	PA	loss	loss1	28
68	1033	1.188	1	8	-15	PA	loss	loss1	29
68	1033	1.591	0	2	-10	PA	loss	loss1	30
68	1033	0.59	1	4	-25	PA	loss	loss1	31
68	1033	2.247	1	2	-15	PA	loss	loss1	32
68	1033	1.485	1	10	-10	PA	loss	loss1	33
68	1033	0.556	1	2	-25	PA	loss	loss1	34
68	1033	0.979	0	2	-5	PA	loss	loss1	35
68	1033	0.912	1	6	-15	PA	loss	loss1	36
68	1033	0.545	1	4	-20	PA	loss	loss1	37
68	1033	0.69	1	10	-25	PA	loss	loss1	38
68	1033	1.417	0	6	-5	PA	loss	loss1	39
68	1033	0.635	1	10	-20	PA	loss	loss1	40
68	1033	2.349	1	8	-25	PA	loss	loss1	41
68	1033	0.493	1	2	-20	PA	loss	loss1	42
68	1033	0.63	1	4	-15	PA	loss	loss1	43
68	1033	2.088	1	10	-5	PA	loss	loss1	44
68	1033	1.567	1	4	-10	PA	loss	loss1	45
68	1033	1.928	0	8	-5	PA	loss	loss1	46
68	1033	0.859	1	6	-10	PA	loss	loss1	47
68	1033	0.628	1	8	-20	PA	loss	loss1	48
68	1033	0.45	1	6	-25	PA	loss	loss1	49
68	1033	0.961	1	8	-10	PA	loss	loss1	50
69	1034	1.274	1	4	-25	PA	loss	loss1	1
69	1034	1.124	1	4	-10	PA	loss	loss1	2
69	1034	0.666	1	4	-20	PA	loss	loss1	3
69	1034	1.216	1	8	-10	PA	loss	loss1	4
69	1034	1.122	1	6	-5	PA	loss	loss1	5
69	1034	0.558	1	2	-10	PA	loss	loss1	6
69	1034	0.93	1	6	-25	PA	loss	loss1	7
69	1034	0.857	1	2	-20	PA	loss	loss1	8
69	1034	0.91	1	10	-15	PA	loss	loss1	9
69	1034	1.602	1	6	-15	PA	loss	loss1	10
69	1034	1.114	1	10	-10	PA	loss	loss1	11
69	1034	0.475	1	2	-15	PA	loss	loss1	12
69	1034	0.722	1	2	-25	PA	loss	loss1	13
69	1034	1.55	1	10	-25	PA	loss	loss1	14
69	1034	0.794	1	6	-10	PA	loss	loss1	15
69	1034	2.853	1	10	-20	PA	loss	loss1	16
69	1034	1.094	1	8	-5	PA	loss	loss1	17
69	1034	0.93	1	8	-20	PA	loss	loss1	18
69	1034	1.467	1	10	-5	PA	loss	loss1	19
69	1034	4.417	1	4	-15	PA	loss	loss1	20
69	1034	13.34	1	8	-15	PA	loss	loss1	21
69	1034	0.609	1	6	-20	PA	loss	loss1	22
69	1034	0.739	1	8	-25	PA	loss	loss1	23
69	1034	0.858	1	4	-5	PA	loss	loss1	24
69	1034	1.181	1	2	-5	PA	loss	loss1	25
69	1034	0.73	1	10	-5	PA	loss	loss1	26
69	1034	1.287	1	2	-5	PA	loss	loss1	27
69	1034	2.284	1	4	-15	PA	loss	loss1	28
69	1034	1.443	1	2	-15	PA	loss	loss1	29
69	1034	2.649	1	10	-25	PA	loss	loss1	30
69	1034	0.968	1	8	-15	PA	loss	loss1	31
69	1034	3.172	1	10	-10	PA	loss	loss1	32
69	1034	3.157	1	4	-25	PA	loss	loss1	33
69	1034	1.086	1	8	-20	PA	loss	loss1	34
69	1034	1.229	1	8	-10	PA	loss	loss1	35
69	1034	1.533	1	10	-20	PA	loss	loss1	36
69	1034	1.484	1	8	-25	PA	loss	loss1	37
69	1034	12.494	1	8	-5	PA	loss	loss1	38
69	1034	2.277	1	10	-15	PA	loss	loss1	39
69	1034	0.891	1	2	-25	PA	loss	loss1	40
69	1034	1.015	1	6	-5	PA	loss	loss1	41
69	1034	1.052	1	6	-25	PA	loss	loss1	42
69	1034	1.637	1	4	-5	PA	loss	loss1	43
69	1034	0.762	1	6	-20	PA	loss	loss1	44
69	1034	4.094	1	4	-20	PA	loss	loss1	45
69	1034	0.766	1	2	-10	PA	loss	loss1	46
69	1034	0.7	1	2	-20	PA	loss	loss1	47
69	1034	0.703	1	6	-15	PA	loss	loss1	48
69	1034	0.915	1	6	-10	PA	loss	loss1	49
69	1034	0.705	1	4	-10	PA	loss	loss1	50
