rawID	subjID	rt	choice	effort	reward	group	framework	group_framework	trials
1	1001	5.572	0	6	10	PA	win	win1	1
1	1001	2.378	1	6	20	PA	win	win1	2
1	1001	3.257	1	6	15	PA	win	win1	3
1	1001	1.999	1	8	25	PA	win	win1	4
1	1001	2.023	0	8	10	PA	win	win1	5
1	1001	1.62	1	4	10	PA	win	win1	6
1	1001	1.803	0	10	5	PA	win	win1	7
1	1001	1.727	0	10	15	PA	win	win1	8
1	1001	2.262	1	2	20	PA	win	win1	9
1	1001	2.172	0	8	5	PA	win	win1	10
1	1001	2.43	1	6	25	PA	win	win1	11
1	1001	1.845	1	4	20	PA	win	win1	12
1	1001	1.783	0	10	10	PA	win	win1	13
1	1001	3.727	0	8	15	PA	win	win1	14
1	1001	2.335	1	2	10	PA	win	win1	15
1	1001	3.077	0	6	5	PA	win	win1	16
1	1001	9.284	1	10	25	PA	win	win1	17
1	1001	2.085	1	2	15	PA	win	win1	18
1	1001	1.868	1	2	25	PA	win	win1	19
1	1001	1.603	1	4	25	PA	win	win1	20
1	1001	1.555	1	4	15	PA	win	win1	21
1	1001	2.287	0	4	5	PA	win	win1	22
1	1001	2.144	1	2	5	PA	win	win1	23
1	1001	2.516	0	10	20	PA	win	win1	24
1	1001	2.489	1	8	20	PA	win	win1	25
1	1001	1.262	0	10	15	PA	win	win1	26
1	1001	4.336	1	10	25	PA	win	win1	27
1	1001	1.768	1	6	25	PA	win	win1	28
1	1001	2.12	0	6	10	PA	win	win1	29
1	1001	2.324	1	6	20	PA	win	win1	30
1	1001	5.815	1	4	15	PA	win	win1	31
1	1001	2.315	0	8	15	PA	win	win1	32
1	1001	1.689	0	6	5	PA	win	win1	33
1	1001	2.631	1	8	25	PA	win	win1	34
1	1001	2.107	0	10	20	PA	win	win1	35
1	1001	1.828	1	2	25	PA	win	win1	36
1	1001	2.044	1	2	5	PA	win	win1	37
1	1001	1.728	1	2	10	PA	win	win1	38
1	1001	2.345	1	4	10	PA	win	win1	39
1	1001	1.985	1	2	20	PA	win	win1	40
1	1001	1.515	0	4	5	PA	win	win1	41
1	1001	2.833	1	8	20	PA	win	win1	42
1	1001	1.663	0	8	5	PA	win	win1	43
1	1001	0.999	0	8	10	PA	win	win1	44
1	1001	1.395	1	2	15	PA	win	win1	45
1	1001	1.546	0	10	5	PA	win	win1	46
1	1001	2.334	1	6	15	PA	win	win1	47
1	1001	1.478	0	10	10	PA	win	win1	48
1	1001	1.662	1	4	20	PA	win	win1	49
1	1001	3.006	1	4	25	PA	win	win1	50
3	1002	1.856	1	6	10	PA	win	win1	1
3	1002	1.948	1	6	15	PA	win	win1	2
3	1002	1.867	1	2	15	PA	win	win1	3
3	1002	1.848	1	2	20	PA	win	win1	4
3	1002	1.802	0	10	5	PA	win	win1	5
3	1002	1.559	1	6	20	PA	win	win1	6
3	1002	1.663	0	10	20	PA	win	win1	7
3	1002	1.362	0	8	20	PA	win	win1	8
3	1002	3.562	0	6	5	PA	win	win1	9
3	1002	1.493	1	4	25	PA	win	win1	10
3	1002	1.179	0	8	5	PA	win	win1	11
3	1002	1.588	1	2	5	PA	win	win1	12
3	1002	1.662	1	4	10	PA	win	win1	13
3	1002	1.554	0	8	10	PA	win	win1	14
3	1002	0.998	1	2	10	PA	win	win1	15
3	1002	1.442	1	4	5	PA	win	win1	16
3	1002	1.278	0	8	15	PA	win	win1	17
3	1002	1.492	1	4	15	PA	win	win1	18
3	1002	1.124	0	10	25	PA	win	win1	19
3	1002	1.307	1	4	20	PA	win	win1	20
3	1002	0.806	0	10	10	PA	win	win1	21
3	1002	0.593	0	10	15	PA	win	win1	22
3	1002	0.554	0	8	25	PA	win	win1	23
3	1002	1.553	1	2	25	PA	win	win1	24
3	1002	1.986	1	6	25	PA	win	win1	25
3	1002	1.511	0	10	25	PA	win	win1	26
3	1002	1.732	1	6	15	PA	win	win1	27
3	1002	1.574	1	2	5	PA	win	win1	28
3	1002	1.113	1	2	15	PA	win	win1	29
3	1002	1.907	0	8	5	PA	win	win1	30
3	1002	3.395	0	6	10	PA	win	win1	31
3	1002	2.189	0	8	15	PA	win	win1	32
3	1002	5.42	1	4	5	PA	win	win1	33
3	1002	0.889	0	10	15	PA	win	win1	34
3	1002	1.041	0	10	20	PA	win	win1	35
3	1002	1.375	1	2	25	PA	win	win1	36
3	1002	1.604	0	8	25	PA	win	win1	37
3	1002	1.139	1	2	20	PA	win	win1	38
3	1002	1.411	1	4	15	PA	win	win1	39
3	1002	1.474	1	4	25	PA	win	win1	40
3	1002	1.535	0	10	5	PA	win	win1	41
3	1002	0.969	0	10	10	PA	win	win1	42
3	1002	1.208	0	8	20	PA	win	win1	43
3	1002	1.274	1	4	20	PA	win	win1	44
3	1002	1.966	1	4	10	PA	win	win1	45
3	1002	1.181	1	2	10	PA	win	win1	46
3	1002	1.591	1	6	25	PA	win	win1	47
3	1002	1.417	0	8	10	PA	win	win1	48
3	1002	1.862	0	6	5	PA	win	win1	49
3	1002	1.604	1	6	20	PA	win	win1	50
7	1003	1.684	0	10	15	PA	win	win1	1
7	1003	1.564	1	2	5	PA	win	win1	2
7	1003	2.385	1	4	15	PA	win	win1	3
7	1003	1.324	1	4	25	PA	win	win1	4
7	1003	1.016	0	10	10	PA	win	win1	5
7	1003	0.963	0	10	5	PA	win	win1	6
7	1003	1.663	0	4	5	PA	win	win1	7
7	1003	1.447	0	6	5	PA	win	win1	8
7	1003	0.907	0	8	5	PA	win	win1	9
7	1003	3.102	1	4	10	PA	win	win1	10
7	1003	3.45	0	8	15	PA	win	win1	11
7	1003	2.872	1	6	20	PA	win	win1	12
7	1003	2.298	1	6	15	PA	win	win1	13
7	1003	1.914	1	2	10	PA	win	win1	14
7	1003	1.107	1	4	20	PA	win	win1	15
7	1003	3.537	0	6	10	PA	win	win1	16
7	1003	1.84	0	8	10	PA	win	win1	17
7	1003	1.318	1	2	15	PA	win	win1	18
7	1003	2.659	0	8	20	PA	win	win1	19
7	1003	1.336	0	10	20	PA	win	win1	20
7	1003	2.182	0	10	25	PA	win	win1	21
7	1003	2.274	1	2	20	PA	win	win1	22
7	1003	3.623	1	6	25	PA	win	win1	23
7	1003	3.28	1	2	25	PA	win	win1	24
7	1003	9.88	1	8	25	PA	win	win1	25
7	1003	2.811	0	10	20	PA	win	win1	26
7	1003	1.07	1	6	20	PA	win	win1	27
7	1003	3.041	1	8	20	PA	win	win1	28
7	1003	2.263	1	6	15	PA	win	win1	29
7	1003	1.047	1	2	25	PA	win	win1	30
7	1003	3.653	1	8	15	PA	win	win1	31
7	1003	1.208	0	10	25	PA	win	win1	32
7	1003	1.571	1	6	10	PA	win	win1	33
7	1003	2.821	0	8	10	PA	win	win1	34
7	1003	1.474	1	2	5	PA	win	win1	35
7	1003	1.451	1	2	20	PA	win	win1	36
7	1003	1.375	1	2	15	PA	win	win1	37
7	1003	1.308	1	4	15	PA	win	win1	38
7	1003	1.368	1	4	20	PA	win	win1	39
7	1003	3.548	1	8	25	PA	win	win1	40
7	1003	2.139	0	4	5	PA	win	win1	41
7	1003	1.355	1	6	25	PA	win	win1	42
7	1003	1.139	0	10	10	PA	win	win1	43
7	1003	5.165	1	4	10	PA	win	win1	44
7	1003	1.378	0	6	5	PA	win	win1	45
7	1003	1.223	0	8	5	PA	win	win1	46
7	1003	1.144	1	4	25	PA	win	win1	47
7	1003	2.895	1	2	10	PA	win	win1	48
7	1003	0.904	0	10	15	PA	win	win1	49
7	1003	0.884	0	10	5	PA	win	win1	50
9	1004	12.51	1	6	10	PA	win	win1	1
9	1004	1.003	1	6	5	PA	win	win1	2
9	1004	4.885	1	8	15	PA	win	win1	3
9	1004	1.219	1	4	15	PA	win	win1	4
9	1004	1.508	1	6	25	PA	win	win1	5
9	1004	1.194	1	2	5	PA	win	win1	6
9	1004	1.02	1	2	25	PA	win	win1	7
9	1004	1.197	1	8	10	PA	win	win1	8
9	1004	0.375	1	10	10	PA	win	win1	9
9	1004	2.529	1	4	20	PA	win	win1	10
9	1004	1.022	1	2	20	PA	win	win1	11
9	1004	0.823	1	4	5	PA	win	win1	12
9	1004	13.656	1	10	15	PA	win	win1	13
9	1004	1.263	1	4	25	PA	win	win1	14
9	1004	0.951	1	8	5	PA	win	win1	15
9	1004	1.106	1	6	15	PA	win	win1	16
9	1004	28.912	1	10	20	PA	win	win1	17
9	1004	2.126	1	6	20	PA	win	win1	18
9	1004	1.13	1	2	10	PA	win	win1	19
9	1004	2.318	1	8	20	PA	win	win1	20
9	1004	9.388	1	4	10	PA	win	win1	21
9	1004	2.11	1	8	25	PA	win	win1	22
9	1004	24.476	1	10	25	PA	win	win1	23
9	1004	1.611	1	2	15	PA	win	win1	24
9	1004	4.612	0	10	5	PA	win	win1	25
9	1004	3.302	1	4	10	PA	win	win1	26
9	1004	1.388	1	6	10	PA	win	win1	27
9	1004	3.878	1	8	15	PA	win	win1	28
9	1004	2.429	0	8	10	PA	win	win1	29
9	1004	0.085	1	2	20	PA	win	win1	30
9	1004	2.732	0	10	5	PA	win	win1	31
9	1004	1.625	1	2	25	PA	win	win1	32
9	1004	1.218	1	4	25	PA	win	win1	33
9	1004	1.963	1	8	25	PA	win	win1	34
9	1004	1.647	1	6	20	PA	win	win1	35
9	1004	2.455	1	6	15	PA	win	win1	36
9	1004	1.807	0	8	5	PA	win	win1	37
9	1004	2.225	1	6	25	PA	win	win1	38
9	1004	1.562	1	8	20	PA	win	win1	39
9	1004	1.797	1	4	20	PA	win	win1	40
9	1004	3.415	1	2	15	PA	win	win1	41
9	1004	2.177	1	4	5	PA	win	win1	42
9	1004	1.844	1	4	15	PA	win	win1	43
9	1004	1.964	1	10	25	PA	win	win1	44
9	1004	1.967	1	6	5	PA	win	win1	45
9	1004	1.099	1	2	10	PA	win	win1	46
9	1004	1.097	1	2	5	PA	win	win1	47
9	1004	1.391	0	10	15	PA	win	win1	48
9	1004	3.537	0	10	10	PA	win	win1	49
9	1004	1.366	1	10	20	PA	win	win1	50
12	1005	2.491	1	2	20	PA	win	win1	1
12	1005	1.664	1	4	25	PA	win	win1	2
12	1005	1.519	1	4	5	PA	win	win1	3
12	1005	1.86	1	10	15	PA	win	win1	4
12	1005	1.532	1	10	25	PA	win	win1	5
12	1005	2.776	0	8	5	PA	win	win1	6
12	1005	1.65	1	2	15	PA	win	win1	7
12	1005	1.674	1	8	20	PA	win	win1	8
12	1005	1.088	1	4	20	PA	win	win1	9
12	1005	0.678	1	10	10	PA	win	win1	10
12	1005	0.757	1	8	25	PA	win	win1	11
12	1005	1.055	1	10	5	PA	win	win1	12
12	1005	0.68	1	4	10	PA	win	win1	13
12	1005	0.51	1	6	25	PA	win	win1	14
12	1005	1.09	1	6	15	PA	win	win1	15
12	1005	0.744	1	6	10	PA	win	win1	16
12	1005	0.692	1	2	25	PA	win	win1	17
12	1005	1.058	1	8	15	PA	win	win1	18
12	1005	0.65	1	10	20	PA	win	win1	19
12	1005	0.985	1	2	5	PA	win	win1	20
12	1005	1.452	1	6	5	PA	win	win1	21
12	1005	0.677	1	4	15	PA	win	win1	22
12	1005	0.714	1	2	10	PA	win	win1	23
12	1005	0.735	1	8	10	PA	win	win1	24
12	1005	1.028	1	6	20	PA	win	win1	25
12	1005	0.75	1	2	15	PA	win	win1	26
12	1005	0.731	1	2	20	PA	win	win1	27
12	1005	0.847	1	4	20	PA	win	win1	28
12	1005	1.511	1	8	20	PA	win	win1	29
12	1005	1.453	1	4	25	PA	win	win1	30
12	1005	2.453	0	10	10	PA	win	win1	31
12	1005	2.709	1	6	20	PA	win	win1	32
12	1005	3.194	0	6	5	PA	win	win1	33
12	1005	1.844	1	4	15	PA	win	win1	34
12	1005	4.116	1	6	15	PA	win	win1	35
12	1005	1.498	1	8	10	PA	win	win1	36
12	1005	1.272	1	6	10	PA	win	win1	37
12	1005	1.007	1	2	25	PA	win	win1	38
12	1005	1.216	1	4	5	PA	win	win1	39
12	1005	1.034	1	4	10	PA	win	win1	40
12	1005	0.779	1	8	25	PA	win	win1	41
12	1005	1.237	1	2	5	PA	win	win1	42
12	1005	1.006	1	10	5	PA	win	win1	43
12	1005	1.048	1	2	10	PA	win	win1	44
12	1005	1.184	1	10	25	PA	win	win1	45
12	1005	0.906	1	10	15	PA	win	win1	46
12	1005	1.072	1	10	20	PA	win	win1	47
12	1005	0.887	1	6	25	PA	win	win1	48
12	1005	1.149	1	8	15	PA	win	win1	49
12	1005	1.61	0	8	5	PA	win	win1	50
13	1006	1.623	1	8	20	PA	win	win1	1
13	1006	0.944	1	10	20	PA	win	win1	2
13	1006	0.748	1	4	25	PA	win	win1	3
13	1006	0.744	1	6	15	PA	win	win1	4
13	1006	2.036	1	10	5	PA	win	win1	5
13	1006	2.389	1	6	5	PA	win	win1	6
13	1006	2.135	1	6	10	PA	win	win1	7
13	1006	1.124	1	8	15	PA	win	win1	8
13	1006	1.289	0	4	5	PA	win	win1	9
13	1006	2.511	0	2	10	PA	win	win1	10
13	1006	2.229	1	10	10	PA	win	win1	11
13	1006	1.286	1	8	25	PA	win	win1	12
13	1006	1.356	1	4	10	PA	win	win1	13
13	1006	1.296	0	2	5	PA	win	win1	14
13	1006	1.342	1	4	20	PA	win	win1	15
13	1006	1.698	1	10	25	PA	win	win1	16
13	1006	2.168	1	2	20	PA	win	win1	17
13	1006	1.732	0	10	15	PA	win	win1	18
13	1006	1.272	0	8	10	PA	win	win1	19
13	1006	1.104	1	6	25	PA	win	win1	20
13	1006	1.734	0	8	5	PA	win	win1	21
13	1006	2.963	1	2	25	PA	win	win1	22
13	1006	1.606	1	4	15	PA	win	win1	23
13	1006	1.84	1	2	15	PA	win	win1	24
13	1006	1.088	1	6	20	PA	win	win1	25
13	1006	1.652	0	6	10	PA	win	win1	26
13	1006	1.276	0	8	5	PA	win	win1	27
13	1006	1.779	0	8	10	PA	win	win1	28
13	1006	1.118	0	6	5	PA	win	win1	29
13	1006	0.579	1	2	20	PA	win	win1	30
13	1006	0.854	1	10	25	PA	win	win1	31
13	1006	1.03	1	2	10	PA	win	win1	32
13	1006	1.471	0	10	5	PA	win	win1	33
13	1006	1.134	1	4	5	PA	win	win1	34
13	1006	1.859	1	4	10	PA	win	win1	35
13	1006	1.09	1	8	25	PA	win	win1	36
13	1006	3.312	1	2	15	PA	win	win1	37
13	1006	1.014	1	10	20	PA	win	win1	38
13	1006	1.823	1	4	20	PA	win	win1	39
13	1006	1.32	1	6	25	PA	win	win1	40
13	1006	1.822	0	10	10	PA	win	win1	41
13	1006	1.823	1	6	15	PA	win	win1	42
13	1006	1.352	1	8	20	PA	win	win1	43
13	1006	1.22	1	4	15	PA	win	win1	44
13	1006	2.317	1	10	15	PA	win	win1	45
13	1006	1.115	1	4	25	PA	win	win1	46
13	1006	0.816	1	6	20	PA	win	win1	47
13	1006	1.714	0	8	15	PA	win	win1	48
13	1006	1.231	1	2	5	PA	win	win1	49
13	1006	0.848	1	2	25	PA	win	win1	50
18	1007	2.743	1	10	20	PA	win	win1	1
18	1007	3.131	1	6	10	PA	win	win1	2
18	1007	1.968	1	8	20	PA	win	win1	3
18	1007	1.363	1	10	25	PA	win	win1	4
18	1007	2.319	1	6	25	PA	win	win1	5
18	1007	2.828	0	10	5	PA	win	win1	6
18	1007	2.021	1	4	15	PA	win	win1	7
18	1007	3.015	1	6	5	PA	win	win1	8
18	1007	2.152	1	2	15	PA	win	win1	9
18	1007	2.076	1	2	20	PA	win	win1	10
18	1007	2.331	1	4	10	PA	win	win1	11
18	1007	1.384	1	4	20	PA	win	win1	12
18	1007	2.042	1	2	5	PA	win	win1	13
18	1007	1.691	1	2	10	PA	win	win1	14
18	1007	2.112	1	6	20	PA	win	win1	15
18	1007	3.318	1	8	5	PA	win	win1	16
18	1007	1.612	1	4	5	PA	win	win1	17
18	1007	1.308	1	8	10	PA	win	win1	18
18	1007	1.89	1	10	10	PA	win	win1	19
18	1007	1.44	1	4	25	PA	win	win1	20
18	1007	1.248	1	6	15	PA	win	win1	21
18	1007	1.184	1	8	25	PA	win	win1	22
18	1007	1.499	1	2	25	PA	win	win1	23
18	1007	1.721	1	10	15	PA	win	win1	24
18	1007	1.366	1	8	15	PA	win	win1	25
18	1007	2.239	1	4	20	PA	win	win1	26
18	1007	1.463	1	10	25	PA	win	win1	27
18	1007	1.359	1	10	15	PA	win	win1	28
18	1007	1.858	0	10	5	PA	win	win1	29
18	1007	1.154	1	2	20	PA	win	win1	30
18	1007	1.789	1	8	20	PA	win	win1	31
18	1007	1.383	1	2	5	PA	win	win1	32
18	1007	1.866	1	6	15	PA	win	win1	33
18	1007	1.393	1	4	5	PA	win	win1	34
18	1007	0.724	1	2	15	PA	win	win1	35
18	1007	1.104	1	8	25	PA	win	win1	36
18	1007	1.134	1	6	20	PA	win	win1	37
18	1007	3.363	0	10	10	PA	win	win1	38
18	1007	2.23	1	6	5	PA	win	win1	39
18	1007	1.175	1	10	20	PA	win	win1	40
18	1007	1.362	1	4	10	PA	win	win1	41
18	1007	1.093	1	8	15	PA	win	win1	42
18	1007	1.523	1	2	25	PA	win	win1	43
18	1007	0.92	1	8	10	PA	win	win1	44
18	1007	1.029	1	6	25	PA	win	win1	45
18	1007	1.774	0	8	5	PA	win	win1	46
18	1007	1.801	1	4	25	PA	win	win1	47
18	1007	1.915	1	6	10	PA	win	win1	48
18	1007	1.529	1	2	10	PA	win	win1	49
18	1007	4.621	1	4	15	PA	win	win1	50
22	1008	10.633	0	10	10	PA	win	win1	1
22	1008	0.97	1	6	20	PA	win	win1	2
22	1008	1.997	0	10	25	PA	win	win1	3
22	1008	2.799	1	4	20	PA	win	win1	4
22	1008	1.841	1	2	10	PA	win	win1	5
22	1008	1.538	1	2	25	PA	win	win1	6
22	1008	1.558	0	8	25	PA	win	win1	7
22	1008	1.217	1	4	5	PA	win	win1	8
22	1008	1.274	1	6	5	PA	win	win1	9
22	1008	1.969	0	10	20	PA	win	win1	10
22	1008	1.227	1	6	10	PA	win	win1	11
22	1008	1.076	1	4	15	PA	win	win1	12
22	1008	1.866	1	8	15	PA	win	win1	13
22	1008	1.65	1	8	20	PA	win	win1	14
22	1008	0.961	1	6	15	PA	win	win1	15
22	1008	2.645	0	10	15	PA	win	win1	16
22	1008	7.029	1	8	5	PA	win	win1	17
22	1008	1.925	1	2	15	PA	win	win1	18
22	1008	0.977	1	2	20	PA	win	win1	19
22	1008	0.891	1	2	5	PA	win	win1	20
22	1008	1.089	1	4	10	PA	win	win1	21
22	1008	0.911	1	4	25	PA	win	win1	22
22	1008	1.58	1	6	25	PA	win	win1	23
22	1008	1.982	1	8	10	PA	win	win1	24
22	1008	1.257	0	10	5	PA	win	win1	25
22	1008	3.285	0	10	20	PA	win	win1	26
22	1008	1.404	1	6	10	PA	win	win1	27
22	1008	0.846	1	2	20	PA	win	win1	28
22	1008	1.398	0	10	15	PA	win	win1	29
22	1008	1.697	1	2	15	PA	win	win1	30
22	1008	1.303	1	4	5	PA	win	win1	31
22	1008	1.445	1	8	15	PA	win	win1	32
22	1008	0.917	1	6	5	PA	win	win1	33
22	1008	0.714	1	2	25	PA	win	win1	34
22	1008	18.312	1	8	20	PA	win	win1	35
22	1008	2.109	0	10	25	PA	win	win1	36
22	1008	2.219	0	10	5	PA	win	win1	37
22	1008	1.004	1	8	25	PA	win	win1	38
22	1008	1.191	0	10	10	PA	win	win1	39
22	1008	1.137	1	2	5	PA	win	win1	40
22	1008	0.878	1	4	25	PA	win	win1	41
22	1008	0.901	1	2	10	PA	win	win1	42
22	1008	1.451	1	4	20	PA	win	win1	43
22	1008	0.923	1	6	20	PA	win	win1	44
22	1008	0.976	1	6	15	PA	win	win1	45
22	1008	1.011	1	8	5	PA	win	win1	46
22	1008	0.804	1	6	25	PA	win	win1	47
22	1008	0.646	1	4	15	PA	win	win1	48
22	1008	1.19	1	4	10	PA	win	win1	49
22	1008	0.808	1	8	10	PA	win	win1	50
23	1009	0.851	1	4	15	PA	win	win1	1
23	1009	2.536	1	10	5	PA	win	win1	2
23	1009	0.805	1	8	25	PA	win	win1	3
23	1009	0.682	1	6	5	PA	win	win1	4
23	1009	1.191	1	8	15	PA	win	win1	5
23	1009	0.596	1	8	5	PA	win	win1	6
23	1009	1.063	1	10	10	PA	win	win1	7
23	1009	1.464	1	4	20	PA	win	win1	8
23	1009	0.5	1	6	10	PA	win	win1	9
23	1009	1.121	1	10	15	PA	win	win1	10
23	1009	1.036	1	2	5	PA	win	win1	11
23	1009	0.904	1	4	5	PA	win	win1	12
23	1009	0.542	1	4	10	PA	win	win1	13
23	1009	0.453	1	8	10	PA	win	win1	14
23	1009	0.769	1	6	20	PA	win	win1	15
23	1009	1.189	1	2	20	PA	win	win1	16
23	1009	3.568	1	6	25	PA	win	win1	17
23	1009	0.925	1	10	20	PA	win	win1	18
23	1009	0.807	1	8	20	PA	win	win1	19
23	1009	1.135	1	2	25	PA	win	win1	20
23	1009	0.434	1	2	15	PA	win	win1	21
23	1009	0.524	1	6	15	PA	win	win1	22
23	1009	0.554	1	10	25	PA	win	win1	23
23	1009	0.661	1	2	10	PA	win	win1	24
23	1009	0.921	1	4	25	PA	win	win1	25
23	1009	0.516	1	8	20	PA	win	win1	26
23	1009	0.567	1	2	5	PA	win	win1	27
23	1009	0.498	1	10	20	PA	win	win1	28
23	1009	0.365	1	6	10	PA	win	win1	29
23	1009	0.451	1	4	25	PA	win	win1	30
23	1009	0.552	1	6	5	PA	win	win1	31
23	1009	0.527	1	8	10	PA	win	win1	32
23	1009	0.444	1	10	25	PA	win	win1	33
23	1009	0.605	1	6	20	PA	win	win1	34
23	1009	0.44	1	4	10	PA	win	win1	35
23	1009	0.364	1	4	5	PA	win	win1	36
23	1009	0.44	1	10	15	PA	win	win1	37
23	1009	0.398	1	2	25	PA	win	win1	38
23	1009	0.496	1	4	15	PA	win	win1	39
23	1009	0.406	1	10	5	PA	win	win1	40
23	1009	0.782	1	2	20	PA	win	win1	41
23	1009	0.443	1	2	15	PA	win	win1	42
23	1009	0.527	1	6	25	PA	win	win1	43
23	1009	2.381	1	4	20	PA	win	win1	44
23	1009	0.589	1	8	5	PA	win	win1	45
23	1009	1.053	1	6	15	PA	win	win1	46
23	1009	1.015	1	8	25	PA	win	win1	47
23	1009	0.586	1	2	10	PA	win	win1	48
23	1009	0.552	1	8	15	PA	win	win1	49
23	1009	0.544	1	10	10	PA	win	win1	50
24	1010	0.827	1	2	10	PA	win	win1	1
24	1010	0.633	1	6	10	PA	win	win1	2
24	1010	0.584	1	10	25	PA	win	win1	3
24	1010	0.689	1	10	10	PA	win	win1	4
24	1010	0.97	1	2	20	PA	win	win1	5
24	1010	1.467	0	8	5	PA	win	win1	6
24	1010	0.626	1	10	20	PA	win	win1	7
24	1010	0.742	1	4	10	PA	win	win1	8
24	1010	1.032	1	6	15	PA	win	win1	9
24	1010	0.867	1	2	15	PA	win	win1	10
24	1010	0.741	1	8	10	PA	win	win1	11
24	1010	1.067	1	4	15	PA	win	win1	12
24	1010	0.919	1	6	20	PA	win	win1	13
24	1010	1.119	1	8	15	PA	win	win1	14
24	1010	1.516	0	10	5	PA	win	win1	15
24	1010	1.044	1	4	20	PA	win	win1	16
24	1010	1.145	0	4	5	PA	win	win1	17
24	1010	1.277	1	2	5	PA	win	win1	18
24	1010	1.348	1	6	25	PA	win	win1	19
24	1010	1.236	1	6	5	PA	win	win1	20
24	1010	1.477	1	2	25	PA	win	win1	21
24	1010	0.804	1	4	25	PA	win	win1	22
24	1010	0.989	1	10	15	PA	win	win1	23
24	1010	0.721	1	8	25	PA	win	win1	24
24	1010	0.496	1	8	20	PA	win	win1	25
24	1010	0.936	1	8	15	PA	win	win1	26
24	1010	1.186	1	6	20	PA	win	win1	27
24	1010	0.639	1	10	10	PA	win	win1	28
24	1010	0.413	1	6	10	PA	win	win1	29
24	1010	1.557	1	10	25	PA	win	win1	30
24	1010	1.005	1	8	5	PA	win	win1	31
24	1010	2.049	0	6	5	PA	win	win1	32
24	1010	0.631	1	6	25	PA	win	win1	33
24	1010	2.109	1	2	15	PA	win	win1	34
24	1010	1.122	1	2	10	PA	win	win1	35
24	1010	1.153	1	10	15	PA	win	win1	36
24	1010	0.662	1	6	15	PA	win	win1	37
24	1010	1.028	1	10	20	PA	win	win1	38
24	1010	1.186	1	2	5	PA	win	win1	39
24	1010	0.617	1	4	20	PA	win	win1	40
24	1010	0.804	1	4	10	PA	win	win1	41
24	1010	0.901	1	2	20	PA	win	win1	42
24	1010	0.622	1	8	20	PA	win	win1	43
24	1010	1.831	0	4	5	PA	win	win1	44
24	1010	2.085	1	8	10	PA	win	win1	45
24	1010	0.772	1	2	25	PA	win	win1	46
24	1010	1.424	1	10	5	PA	win	win1	47
24	1010	1.446	1	4	25	PA	win	win1	48
24	1010	0.654	1	8	25	PA	win	win1	49
24	1010	1.289	1	4	15	PA	win	win1	50
25	1011	1.114	1	2	25	PA	win	win1	1
25	1011	2.03	0	8	5	PA	win	win1	2
25	1011	1.512	1	2	10	PA	win	win1	3
25	1011	1.186	0	10	15	PA	win	win1	4
25	1011	4.921	1	8	25	PA	win	win1	5
25	1011	2.6	1	4	25	PA	win	win1	6
25	1011	3.633	0	8	10	PA	win	win1	7
25	1011	2.799	1	6	25	PA	win	win1	8
25	1011	1.692	1	4	15	PA	win	win1	9
25	1011	2.235	0	6	10	PA	win	win1	10
25	1011	1.817	0	10	5	PA	win	win1	11
25	1011	1.65	0	4	5	PA	win	win1	12
25	1011	2.285	0	10	20	PA	win	win1	13
25	1011	1.895	1	8	20	PA	win	win1	14
25	1011	1.604	0	8	15	PA	win	win1	15
25	1011	1.528	1	2	15	PA	win	win1	16
25	1011	2.896	1	4	10	PA	win	win1	17
25	1011	1.818	1	2	20	PA	win	win1	18
25	1011	3.029	0	10	10	PA	win	win1	19
25	1011	1.628	1	4	20	PA	win	win1	20
25	1011	5.919	0	10	25	PA	win	win1	21
25	1011	1.608	0	6	5	PA	win	win1	22
25	1011	2.863	1	6	20	PA	win	win1	23
25	1011	2.271	1	6	15	PA	win	win1	24
25	1011	1.765	0	2	5	PA	win	win1	25
25	1011	2.421	0	10	10	PA	win	win1	26
25	1011	1.936	1	6	15	PA	win	win1	27
25	1011	1.405	1	4	15	PA	win	win1	28
25	1011	2.316	0	8	15	PA	win	win1	29
25	1011	2.736	1	2	10	PA	win	win1	30
25	1011	2.096	0	10	5	PA	win	win1	31
25	1011	1.766	0	4	5	PA	win	win1	32
25	1011	5.87	1	8	20	PA	win	win1	33
25	1011	1.409	1	2	25	PA	win	win1	34
25	1011	2.334	0	6	10	PA	win	win1	35
25	1011	1.704	1	4	20	PA	win	win1	36
25	1011	2.207	1	4	25	PA	win	win1	37
25	1011	3.177	0	2	15	PA	win	win1	38
25	1011	2.607	0	10	25	PA	win	win1	39
25	1011	1.891	0	2	5	PA	win	win1	40
25	1011	1.946	0	6	5	PA	win	win1	41
25	1011	2.638	1	2	20	PA	win	win1	42
25	1011	3.882	1	8	25	PA	win	win1	43
25	1011	3.246	1	6	25	PA	win	win1	44
25	1011	2.506	1	4	10	PA	win	win1	45
25	1011	1.953	1	6	20	PA	win	win1	46
25	1011	1.798	0	10	15	PA	win	win1	47
25	1011	1.494	0	8	5	PA	win	win1	48
25	1011	2.326	0	8	10	PA	win	win1	49
25	1011	3.112	0	10	20	PA	win	win1	50
26	1012	1.954	1	2	10	PA	win	win1	1
26	1012	4.259	1	8	15	PA	win	win1	2
26	1012	2.185	1	6	10	PA	win	win1	3
26	1012	2.02	1	4	25	PA	win	win1	4
26	1012	2.643	1	6	15	PA	win	win1	5
26	1012	4.565	1	8	25	PA	win	win1	6
26	1012	3.053	0	10	10	PA	win	win1	7
26	1012	2.265	1	4	10	PA	win	win1	8
26	1012	2.122	0	6	5	PA	win	win1	9
26	1012	1.858	0	10	5	PA	win	win1	10
26	1012	2.999	1	10	20	PA	win	win1	11
26	1012	2.576	0	8	10	PA	win	win1	12
26	1012	2.549	1	6	25	PA	win	win1	13
26	1012	2.036	1	2	15	PA	win	win1	14
26	1012	3.297	1	4	20	PA	win	win1	15
26	1012	2.331	0	8	5	PA	win	win1	16
26	1012	3.989	1	4	5	PA	win	win1	17
26	1012	5.282	1	2	5	PA	win	win1	18
26	1012	3.122	1	4	15	PA	win	win1	19
26	1012	2.334	1	2	25	PA	win	win1	20
26	1012	3.668	1	10	25	PA	win	win1	21
26	1012	2.245	1	6	20	PA	win	win1	22
26	1012	3.73	1	10	15	PA	win	win1	23
26	1012	4.17	1	2	20	PA	win	win1	24
26	1012	6.276	1	8	20	PA	win	win1	25
26	1012	7.816	1	4	15	PA	win	win1	26
26	1012	2.243	1	6	20	PA	win	win1	27
26	1012	1.964	1	8	20	PA	win	win1	28
26	1012	2.438	0	8	10	PA	win	win1	29
26	1012	2.559	0	2	5	PA	win	win1	30
26	1012	2.05	0	8	15	PA	win	win1	31
26	1012	2.619	1	4	25	PA	win	win1	32
26	1012	1.666	0	10	15	PA	win	win1	33
26	1012	1.669	0	8	5	PA	win	win1	34
26	1012	2.363	1	2	25	PA	win	win1	35
26	1012	1.795	0	6	10	PA	win	win1	36
26	1012	12.571	0	10	5	PA	win	win1	37
26	1012	2.908	1	8	25	PA	win	win1	38
26	1012	2.37	0	4	10	PA	win	win1	39
26	1012	2.656	1	10	25	PA	win	win1	40
26	1012	2.94	0	10	10	PA	win	win1	41
26	1012	3.186	1	10	20	PA	win	win1	42
26	1012	2.591	0	2	10	PA	win	win1	43
26	1012	3.448	1	6	25	PA	win	win1	44
26	1012	6.694	1	6	15	PA	win	win1	45
26	1012	1.38	1	2	20	PA	win	win1	46
26	1012	3.312	0	4	5	PA	win	win1	47
26	1012	1.64	0	6	5	PA	win	win1	48
26	1012	2.741	1	4	20	PA	win	win1	49
26	1012	6.676	1	2	15	PA	win	win1	50
28	1013	2.16	0	6	5	PA	win	win1	1
28	1013	3.075	0	4	5	PA	win	win1	2
28	1013	3.661	0	6	10	PA	win	win1	3
28	1013	2.787	1	2	10	PA	win	win1	4
28	1013	2.443	0	2	5	PA	win	win1	5
28	1013	1.991	1	4	25	PA	win	win1	6
28	1013	4.105	1	6	25	PA	win	win1	7
28	1013	2.122	0	8	10	PA	win	win1	8
28	1013	1.979	1	2	15	PA	win	win1	9
28	1013	1.451	1	2	20	PA	win	win1	10
28	1013	4.134	1	8	20	PA	win	win1	11
28	1013	2.786	1	10	20	PA	win	win1	12
28	1013	1.989	1	8	25	PA	win	win1	13
28	1013	2.37	1	4	15	PA	win	win1	14
28	1013	2.006	0	4	10	PA	win	win1	15
28	1013	1.838	0	10	10	PA	win	win1	16
28	1013	1.543	0	10	5	PA	win	win1	17
28	1013	3.204	1	4	20	PA	win	win1	18
28	1013	2.011	1	10	25	PA	win	win1	19
28	1013	1.868	1	6	20	PA	win	win1	20
28	1013	3.43	1	10	15	PA	win	win1	21
28	1013	1.975	1	2	25	PA	win	win1	22
28	1013	2.987	1	8	15	PA	win	win1	23
28	1013	6.321	1	6	15	PA	win	win1	24
28	1013	1.564	0	8	5	PA	win	win1	25
28	1013	8.255	0	4	5	PA	win	win1	26
28	1013	1.744	1	8	25	PA	win	win1	27
28	1013	2.4	1	4	10	PA	win	win1	28
28	1013	1.312	1	2	15	PA	win	win1	29
28	1013	1.094	1	8	20	PA	win	win1	30
28	1013	3.603	1	4	25	PA	win	win1	31
28	1013	7.821	1	10	10	PA	win	win1	32
28	1013	1.683	1	6	25	PA	win	win1	33
28	1013	1.4	1	6	20	PA	win	win1	34
28	1013	2.895	1	10	15	PA	win	win1	35
28	1013	1.532	1	4	20	PA	win	win1	36
28	1013	2.667	1	8	15	PA	win	win1	37
28	1013	1.683	1	10	20	PA	win	win1	38
28	1013	2.278	0	8	10	PA	win	win1	39
28	1013	1.987	0	6	10	PA	win	win1	40
28	1013	2.837	1	2	25	PA	win	win1	41
28	1013	1.34	0	10	5	PA	win	win1	42
28	1013	6.115	1	4	15	PA	win	win1	43
28	1013	1.152	0	2	5	PA	win	win1	44
28	1013	0.819	1	2	20	PA	win	win1	45
28	1013	0.914	0	8	5	PA	win	win1	46
28	1013	0.864	0	6	5	PA	win	win1	47
28	1013	1.789	1	6	15	PA	win	win1	48
28	1013	3.416	1	2	10	PA	win	win1	49
28	1013	1.253	1	10	25	PA	win	win1	50
30	1014	3.422	1	4	25	PA	win	win1	1
30	1014	3.987	1	10	15	PA	win	win1	2
30	1014	3.603	1	4	10	PA	win	win1	3
30	1014	4.44	0	6	5	PA	win	win1	4
30	1014	2.844	1	2	15	PA	win	win1	5
30	1014	2.875	1	6	20	PA	win	win1	6
30	1014	32.853	0	6	10	PA	win	win1	7
30	1014	2.766	1	4	15	PA	win	win1	8
30	1014	7.512	1	8	20	PA	win	win1	9
30	1014	3.71	1	8	25	PA	win	win1	10
30	1014	2.418	0	8	5	PA	win	win1	11
30	1014	2.205	0	10	10	PA	win	win1	12
30	1014	5.906	1	4	5	PA	win	win1	13
30	1014	6.826	1	10	25	PA	win	win1	14
30	1014	3.857	1	6	25	PA	win	win1	15
30	1014	5.548	1	6	15	PA	win	win1	16
30	1014	2.568	1	4	20	PA	win	win1	17
30	1014	2.803	0	8	15	PA	win	win1	18
30	1014	2.769	1	2	20	PA	win	win1	19
30	1014	2.798	0	10	5	PA	win	win1	20
30	1014	2.883	0	8	10	PA	win	win1	21
30	1014	2.427	1	2	25	PA	win	win1	22
30	1014	2.214	1	2	5	PA	win	win1	23
30	1014	4.166	0	10	20	PA	win	win1	24
30	1014	2.057	1	2	10	PA	win	win1	25
30	1014	1.844	0	4	5	PA	win	win1	26
30	1014	2.339	1	4	10	PA	win	win1	27
30	1014	7.137	1	2	15	PA	win	win1	28
30	1014	1.772	0	10	10	PA	win	win1	29
30	1014	2.034	0	10	20	PA	win	win1	30
30	1014	2.188	1	4	20	PA	win	win1	31
30	1014	4.223	1	8	20	PA	win	win1	32
30	1014	2.095	1	4	25	PA	win	win1	33
30	1014	3.327	1	2	5	PA	win	win1	34
30	1014	1.689	0	8	5	PA	win	win1	35
30	1014	2.074	1	2	20	PA	win	win1	36
30	1014	2.147	1	2	10	PA	win	win1	37
30	1014	3.076	1	10	25	PA	win	win1	38
30	1014	2.344	1	8	25	PA	win	win1	39
30	1014	2.33	0	8	10	PA	win	win1	40
30	1014	1.685	0	10	5	PA	win	win1	41
30	1014	1.285	1	6	20	PA	win	win1	42
30	1014	1.91	0	10	15	PA	win	win1	43
30	1014	2.621	0	8	15	PA	win	win1	44
30	1014	2.89	1	4	15	PA	win	win1	45
30	1014	1.581	0	6	5	PA	win	win1	46
30	1014	2.369	1	6	15	PA	win	win1	47
30	1014	3.538	1	6	25	PA	win	win1	48
30	1014	1.73	1	2	25	PA	win	win1	49
30	1014	2.264	0	6	10	PA	win	win1	50
35	1015	7.666	0	8	15	PA	win	win1	1
35	1015	3.026	0	6	5	PA	win	win1	2
35	1015	3.594	1	6	20	PA	win	win1	3
35	1015	3.404	1	2	5	PA	win	win1	4
35	1015	3.199	1	2	25	PA	win	win1	5
35	1015	2.025	0	10	5	PA	win	win1	6
35	1015	2.162	1	4	25	PA	win	win1	7
35	1015	3.557	0	6	15	PA	win	win1	8
35	1015	2.992	1	6	25	PA	win	win1	9
35	1015	2.003	0	10	10	PA	win	win1	10
35	1015	1.757	1	4	20	PA	win	win1	11
35	1015	5.64	1	8	25	PA	win	win1	12
35	1015	2.072	0	8	5	PA	win	win1	13
35	1015	2.056	0	6	10	PA	win	win1	14
35	1015	2.128	0	8	10	PA	win	win1	15
35	1015	2.925	1	2	15	PA	win	win1	16
35	1015	5.225	0	4	5	PA	win	win1	17
35	1015	2.234	0	4	10	PA	win	win1	18
35	1015	5.139	1	8	20	PA	win	win1	19
35	1015	3.719	1	10	25	PA	win	win1	20
35	1015	1.796	0	10	20	PA	win	win1	21
35	1015	1.758	1	2	20	PA	win	win1	22
35	1015	1.577	1	2	10	PA	win	win1	23
35	1015	3.604	0	10	15	PA	win	win1	24
35	1015	1.886	1	4	15	PA	win	win1	25
35	1015	6.49	0	10	20	PA	win	win1	26
35	1015	3.344	1	6	20	PA	win	win1	27
35	1015	2.708	1	10	25	PA	win	win1	28
35	1015	1.626	0	8	15	PA	win	win1	29
35	1015	1.891	1	6	25	PA	win	win1	30
35	1015	2.89	0	10	15	PA	win	win1	31
35	1015	1	0	10	5	PA	win	win1	32
35	1015	3.145	1	6	15	PA	win	win1	33
35	1015	1.222	1	4	25	PA	win	win1	34
35	1015	3.126	1	4	10	PA	win	win1	35
35	1015	1.339	0	6	10	PA	win	win1	36
35	1015	0.96	0	8	5	PA	win	win1	37
35	1015	1.516	0	10	10	PA	win	win1	38
35	1015	1.226	0	8	10	PA	win	win1	39
35	1015	2.889	1	4	15	PA	win	win1	40
35	1015	2.169	1	2	25	PA	win	win1	41
35	1015	1.027	1	2	15	PA	win	win1	42
35	1015	1.66	1	4	20	PA	win	win1	43
35	1015	5.06	0	8	20	PA	win	win1	44
35	1015	1.556	1	2	5	PA	win	win1	45
35	1015	2.623	1	8	25	PA	win	win1	46
35	1015	1.864	0	4	5	PA	win	win1	47
35	1015	1.511	1	2	20	PA	win	win1	48
35	1015	1.508	1	2	10	PA	win	win1	49
35	1015	1.066	0	6	5	PA	win	win1	50
40	1016	3.138	0	8	5	PA	win	win1	1
40	1016	2.814	1	4	10	PA	win	win1	2
40	1016	1.696	1	10	10	PA	win	win1	3
40	1016	1.79	1	4	15	PA	win	win1	4
40	1016	1.72	1	2	10	PA	win	win1	5
40	1016	1.366	1	10	20	PA	win	win1	6
40	1016	2.497	1	6	5	PA	win	win1	7
40	1016	6.087	1	4	5	PA	win	win1	8
40	1016	1.894	0	10	15	PA	win	win1	9
40	1016	3.1	1	2	25	PA	win	win1	10
40	1016	1.922	1	4	25	PA	win	win1	11
40	1016	2.327	0	6	10	PA	win	win1	12
40	1016	1.26	1	2	5	PA	win	win1	13
40	1016	2.339	0	8	10	PA	win	win1	14
40	1016	1.416	1	6	20	PA	win	win1	15
40	1016	1.338	1	4	20	PA	win	win1	16
40	1016	2.263	1	2	20	PA	win	win1	17
40	1016	10.893	0	8	15	PA	win	win1	18
40	1016	2.932	0	10	25	PA	win	win1	19
40	1016	2.009	0	10	5	PA	win	win1	20
40	1016	3.962	1	8	25	PA	win	win1	21
40	1016	1.373	1	6	15	PA	win	win1	22
40	1016	3.168	1	8	20	PA	win	win1	23
40	1016	14.435	1	6	25	PA	win	win1	24
40	1016	1.516	1	2	15	PA	win	win1	25
40	1016	3.987	1	6	15	PA	win	win1	26
40	1016	3.309	1	6	10	PA	win	win1	27
40	1016	1.059	1	8	5	PA	win	win1	28
40	1016	1.146	1	2	15	PA	win	win1	29
40	1016	1.207	1	4	25	PA	win	win1	30
40	1016	1.128	1	2	5	PA	win	win1	31
40	1016	2.957	1	8	20	PA	win	win1	32
40	1016	1.08	1	6	25	PA	win	win1	33
40	1016	1.231	1	8	10	PA	win	win1	34
40	1016	1.496	1	10	25	PA	win	win1	35
40	1016	1.07	1	10	5	PA	win	win1	36
40	1016	1.821	1	2	25	PA	win	win1	37
40	1016	3.262	0	10	15	PA	win	win1	38
40	1016	2.51	1	6	20	PA	win	win1	39
40	1016	1.347	0	2	20	PA	win	win1	40
40	1016	0.503	1	4	15	PA	win	win1	41
40	1016	2.021	1	8	25	PA	win	win1	42
40	1016	0.327	1	10	10	PA	win	win1	43
40	1016	1.484	1	10	20	PA	win	win1	44
40	1016	1.571	1	4	20	PA	win	win1	45
40	1016	1.502	0	8	15	PA	win	win1	46
40	1016	2.212	0	6	5	PA	win	win1	47
40	1016	1.398	1	2	10	PA	win	win1	48
40	1016	2.2	1	4	5	PA	win	win1	49
40	1016	2.33	1	4	10	PA	win	win1	50
42	1017	4.904	1	4	20	PA	win	win1	1
42	1017	2.589	1	8	5	PA	win	win1	2
42	1017	1.791	1	4	25	PA	win	win1	3
42	1017	1.746	1	10	15	PA	win	win1	4
42	1017	3.998	1	8	25	PA	win	win1	5
42	1017	0.983	1	2	20	PA	win	win1	6
42	1017	0.946	1	2	15	PA	win	win1	7
42	1017	2.046	1	4	10	PA	win	win1	8
42	1017	3.966	0	6	5	PA	win	win1	9
42	1017	2.554	0	6	10	PA	win	win1	10
42	1017	2.022	1	10	25	PA	win	win1	11
42	1017	2.135	1	6	20	PA	win	win1	12
42	1017	1.988	1	2	10	PA	win	win1	13
42	1017	2.167	0	10	5	PA	win	win1	14
42	1017	2.258	1	4	15	PA	win	win1	15
42	1017	2.57	1	8	20	PA	win	win1	16
42	1017	1.677	1	2	5	PA	win	win1	17
42	1017	2.548	0	4	5	PA	win	win1	18
42	1017	6.192	1	8	15	PA	win	win1	19
42	1017	1.585	1	2	25	PA	win	win1	20
42	1017	1.804	0	10	20	PA	win	win1	21
42	1017	12.462	1	6	25	PA	win	win1	22
42	1017	2.213	0	10	10	PA	win	win1	23
42	1017	1.911	1	6	15	PA	win	win1	24
42	1017	2.372	0	8	10	PA	win	win1	25
42	1017	5.123	1	6	25	PA	win	win1	26
42	1017	1.848	1	2	5	PA	win	win1	27
42	1017	1.024	1	4	25	PA	win	win1	28
42	1017	3.913	0	8	5	PA	win	win1	29
42	1017	1.398	1	6	20	PA	win	win1	30
42	1017	2.448	0	10	10	PA	win	win1	31
42	1017	2.24	0	6	5	PA	win	win1	32
42	1017	1.417	1	2	25	PA	win	win1	33
42	1017	3.947	1	6	10	PA	win	win1	34
42	1017	0.991	1	2	15	PA	win	win1	35
42	1017	2.065	0	10	15	PA	win	win1	36
42	1017	3.888	1	10	25	PA	win	win1	37
42	1017	4.742	1	10	20	PA	win	win1	38
42	1017	2.179	0	8	20	PA	win	win1	39
42	1017	3.141	1	8	25	PA	win	win1	40
42	1017	2.417	0	8	10	PA	win	win1	41
42	1017	1.667	1	4	10	PA	win	win1	42
42	1017	1.634	1	2	10	PA	win	win1	43
42	1017	2.083	1	4	15	PA	win	win1	44
42	1017	2.922	0	8	15	PA	win	win1	45
42	1017	3.295	1	4	5	PA	win	win1	46
42	1017	3.413	1	4	20	PA	win	win1	47
42	1017	9.591	1	6	15	PA	win	win1	48
42	1017	2.385	0	10	5	PA	win	win1	49
42	1017	2.18	1	2	20	PA	win	win1	50
46	1018	2.308	0	10	10	PA	win	win1	1
46	1018	0.673	1	8	20	PA	win	win1	2
46	1018	1.558	1	4	10	PA	win	win1	3
46	1018	0.64	1	6	25	PA	win	win1	4
46	1018	1.118	1	2	10	PA	win	win1	5
46	1018	2.96	0	8	5	PA	win	win1	6
46	1018	1.214	1	2	25	PA	win	win1	7
46	1018	0.663	1	4	20	PA	win	win1	8
46	1018	1.208	1	4	5	PA	win	win1	9
46	1018	0.9	1	2	15	PA	win	win1	10
46	1018	1.461	0	10	5	PA	win	win1	11
46	1018	1.327	1	10	20	PA	win	win1	12
46	1018	1.225	1	8	10	PA	win	win1	13
46	1018	0.804	1	6	5	PA	win	win1	14
46	1018	1.06	1	6	10	PA	win	win1	15
46	1018	0.777	1	2	20	PA	win	win1	16
46	1018	0.381	1	6	15	PA	win	win1	17
46	1018	0.754	1	4	25	PA	win	win1	18
46	1018	1.582	1	8	25	PA	win	win1	19
46	1018	1.646	1	8	15	PA	win	win1	20
46	1018	0.53	1	6	20	PA	win	win1	21
46	1018	0.569	1	10	15	PA	win	win1	22
46	1018	1.094	1	2	5	PA	win	win1	23
46	1018	1.484	1	4	15	PA	win	win1	24
46	1018	6.162	1	10	25	PA	win	win1	25
46	1018	1.04	1	6	5	PA	win	win1	26
46	1018	0.881	1	8	10	PA	win	win1	27
46	1018	3.584	1	6	10	PA	win	win1	28
46	1018	0.936	1	8	20	PA	win	win1	29
46	1018	0.513	1	4	5	PA	win	win1	30
46	1018	0.607	1	8	25	PA	win	win1	31
46	1018	0.486	1	4	25	PA	win	win1	32
46	1018	4.605	1	2	20	PA	win	win1	33
46	1018	0.624	1	10	10	PA	win	win1	34
46	1018	1.062	1	6	25	PA	win	win1	35
46	1018	0.942	1	10	15	PA	win	win1	36
46	1018	0.389	1	8	15	PA	win	win1	37
46	1018	1.084	1	2	10	PA	win	win1	38
46	1018	1.064	1	4	20	PA	win	win1	39
46	1018	0.484	1	8	5	PA	win	win1	40
46	1018	0.465	1	10	25	PA	win	win1	41
46	1018	0.462	1	2	25	PA	win	win1	42
46	1018	0.592	1	6	15	PA	win	win1	43
46	1018	0.982	1	4	10	PA	win	win1	44
46	1018	0.587	1	2	5	PA	win	win1	45
46	1018	0.616	1	6	20	PA	win	win1	46
46	1018	0.401	1	10	5	PA	win	win1	47
46	1018	0.596	1	4	15	PA	win	win1	48
46	1018	0.373	1	2	15	PA	win	win1	49
46	1018	0.511	1	10	20	PA	win	win1	50
51	1019	1.865	1	2	15	PA	win	win1	1
51	1019	1.496	1	2	20	PA	win	win1	2
51	1019	1.06	0	10	25	PA	win	win1	3
51	1019	0.959	0	10	10	PA	win	win1	4
51	1019	0.954	0	10	5	PA	win	win1	5
51	1019	0.776	0	10	20	PA	win	win1	6
51	1019	3.472	1	2	5	PA	win	win1	7
51	1019	1.577	0	8	5	PA	win	win1	8
51	1019	3.249	1	8	20	PA	win	win1	9
51	1019	1.525	0	8	10	PA	win	win1	10
51	1019	2.31	1	4	20	PA	win	win1	11
51	1019	2.052	1	4	25	PA	win	win1	12
51	1019	1.961	0	6	5	PA	win	win1	13
51	1019	1.742	1	2	10	PA	win	win1	14
51	1019	1.885	0	8	15	PA	win	win1	15
51	1019	2.643	1	6	10	PA	win	win1	16
51	1019	1.771	1	4	10	PA	win	win1	17
51	1019	1.117	1	2	25	PA	win	win1	18
51	1019	3.44	1	6	15	PA	win	win1	19
51	1019	1.634	1	6	25	PA	win	win1	20
51	1019	1.329	1	4	15	PA	win	win1	21
51	1019	1.086	0	10	15	PA	win	win1	22
51	1019	1.898	0	4	5	PA	win	win1	23
51	1019	3.055	1	6	20	PA	win	win1	24
51	1019	3.436	1	8	25	PA	win	win1	25
51	1019	1.119	1	4	25	PA	win	win1	26
51	1019	0.97	1	8	25	PA	win	win1	27
51	1019	0.802	0	10	20	PA	win	win1	28
51	1019	1.533	1	6	20	PA	win	win1	29
51	1019	2.456	1	6	15	PA	win	win1	30
51	1019	1.472	1	6	5	PA	win	win1	31
51	1019	1.084	1	4	10	PA	win	win1	32
51	1019	1.03	1	4	20	PA	win	win1	33
51	1019	3.129	1	8	20	PA	win	win1	34
51	1019	1.639	1	4	15	PA	win	win1	35
51	1019	0.85	1	2	10	PA	win	win1	36
51	1019	1.937	0	8	5	PA	win	win1	37
51	1019	0.958	1	2	20	PA	win	win1	38
51	1019	1.254	0	10	10	PA	win	win1	39
51	1019	1.717	0	6	10	PA	win	win1	40
51	1019	1.58	1	2	25	PA	win	win1	41
51	1019	3.477	0	10	25	PA	win	win1	42
51	1019	0.922	1	2	15	PA	win	win1	43
51	1019	2.371	1	6	25	PA	win	win1	44
51	1019	1.846	0	4	5	PA	win	win1	45
51	1019	1.04	0	10	5	PA	win	win1	46
51	1019	1.393	0	2	5	PA	win	win1	47
51	1019	1.171	0	8	10	PA	win	win1	48
51	1019	1.663	0	8	15	PA	win	win1	49
51	1019	1.169	0	10	15	PA	win	win1	50
52	1020	4.202	1	8	10	PA	win	win1	1
52	1020	2.736	1	2	20	PA	win	win1	2
52	1020	2.935	1	8	25	PA	win	win1	3
52	1020	1.495	1	2	5	PA	win	win1	4
52	1020	3.182	1	10	20	PA	win	win1	5
52	1020	3.13	1	8	5	PA	win	win1	6
52	1020	1.415	1	2	15	PA	win	win1	7
52	1020	2.229	1	8	15	PA	win	win1	8
52	1020	2.051	1	10	25	PA	win	win1	9
52	1020	4.061	1	6	15	PA	win	win1	10
52	1020	2.259	1	2	25	PA	win	win1	11
52	1020	4.671	1	4	10	PA	win	win1	12
52	1020	2.273	1	10	5	PA	win	win1	13
52	1020	1.699	1	4	5	PA	win	win1	14
52	1020	2.364	1	10	10	PA	win	win1	15
52	1020	1.308	1	4	20	PA	win	win1	16
52	1020	1.582	1	8	20	PA	win	win1	17
52	1020	1.235	1	2	10	PA	win	win1	18
52	1020	0.516	1	6	10	PA	win	win1	19
52	1020	1.421	1	10	15	PA	win	win1	20
52	1020	0.803	1	4	15	PA	win	win1	21
52	1020	1.373	1	6	25	PA	win	win1	22
52	1020	4.303	1	6	5	PA	win	win1	23
52	1020	2.777	1	4	25	PA	win	win1	24
52	1020	4.019	1	6	20	PA	win	win1	25
52	1020	1.399	1	6	15	PA	win	win1	26
52	1020	0.622	1	2	20	PA	win	win1	27
52	1020	0.825	1	2	5	PA	win	win1	28
52	1020	1.787	1	10	20	PA	win	win1	29
52	1020	2.621	1	6	5	PA	win	win1	30
52	1020	1.183	1	8	5	PA	win	win1	31
52	1020	1.857	1	8	15	PA	win	win1	32
52	1020	1.004	1	6	25	PA	win	win1	33
52	1020	1.648	1	10	15	PA	win	win1	34
52	1020	0.794	1	2	10	PA	win	win1	35
52	1020	0.677	1	4	5	PA	win	win1	36
52	1020	1.975	1	2	25	PA	win	win1	37
52	1020	0.671	1	8	20	PA	win	win1	38
52	1020	1.168	1	8	10	PA	win	win1	39
52	1020	0.911	1	10	10	PA	win	win1	40
52	1020	1.303	1	10	5	PA	win	win1	41
52	1020	2.094	1	4	15	PA	win	win1	42
52	1020	0.848	1	8	25	PA	win	win1	43
52	1020	0.682	1	4	10	PA	win	win1	44
52	1020	0.824	1	4	25	PA	win	win1	45
52	1020	0.882	1	6	20	PA	win	win1	46
52	1020	0.501	1	2	15	PA	win	win1	47
52	1020	1.081	1	6	10	PA	win	win1	48
52	1020	0.341	1	4	20	PA	win	win1	49
52	1020	1.085	1	10	25	PA	win	win1	50
53	1021	2.501	0	10	5	PA	win	win1	1
53	1021	3.008	1	2	5	PA	win	win1	2
53	1021	3.282	1	10	25	PA	win	win1	3
53	1021	2.852	1	4	10	PA	win	win1	4
53	1021	2.735	1	6	25	PA	win	win1	5
53	1021	1.878	1	10	15	PA	win	win1	6
53	1021	1.897	1	2	15	PA	win	win1	7
53	1021	1.512	1	6	15	PA	win	win1	8
53	1021	1.799	1	8	25	PA	win	win1	9
53	1021	1.167	1	4	15	PA	win	win1	10
53	1021	2.261	1	6	5	PA	win	win1	11
53	1021	2.367	1	10	20	PA	win	win1	12
53	1021	3.141	0	8	5	PA	win	win1	13
53	1021	3.266	1	4	5	PA	win	win1	14
53	1021	2.198	1	6	10	PA	win	win1	15
53	1021	2.582	1	4	25	PA	win	win1	16
53	1021	2.328	1	2	25	PA	win	win1	17
53	1021	3.758	1	8	15	PA	win	win1	18
53	1021	1.967	1	2	10	PA	win	win1	19
53	1021	2.173	1	2	20	PA	win	win1	20
53	1021	1.769	1	6	20	PA	win	win1	21
53	1021	2.105	1	8	10	PA	win	win1	22
53	1021	2.367	1	4	20	PA	win	win1	23
53	1021	2.105	1	8	20	PA	win	win1	24
53	1021	3.736	1	10	10	PA	win	win1	25
53	1021	2.037	1	2	5	PA	win	win1	26
53	1021	2.571	0	8	15	PA	win	win1	27
53	1021	2.052	0	8	5	PA	win	win1	28
53	1021	1.352	1	2	20	PA	win	win1	29
53	1021	1.758	1	2	25	PA	win	win1	30
53	1021	3.792	1	6	5	PA	win	win1	31
53	1021	1.847	1	10	25	PA	win	win1	32
53	1021	1.577	1	10	10	PA	win	win1	33
53	1021	1.166	1	6	15	PA	win	win1	34
53	1021	0.748	1	2	15	PA	win	win1	35
53	1021	1.567	1	6	20	PA	win	win1	36
53	1021	1.006	1	8	25	PA	win	win1	37
53	1021	1.586	1	4	25	PA	win	win1	38
53	1021	3.194	1	8	20	PA	win	win1	39
53	1021	1.546	1	4	5	PA	win	win1	40
53	1021	2.585	1	10	5	PA	win	win1	41
53	1021	1.236	1	2	10	PA	win	win1	42
53	1021	1.012	1	8	10	PA	win	win1	43
53	1021	0.986	1	4	15	PA	win	win1	44
53	1021	1.447	1	10	15	PA	win	win1	45
53	1021	2.644	1	6	25	PA	win	win1	46
53	1021	6.871	1	10	20	PA	win	win1	47
53	1021	1.136	1	4	10	PA	win	win1	48
53	1021	1.093	1	4	20	PA	win	win1	49
53	1021	1.097	1	6	10	PA	win	win1	50
54	1022	2.84	1	8	25	PA	win	win1	1
54	1022	2.729	1	2	25	PA	win	win1	2
54	1022	2.516	0	10	5	PA	win	win1	3
54	1022	5.204	1	10	10	PA	win	win1	4
54	1022	6.967	1	8	10	PA	win	win1	5
54	1022	1.693	1	6	25	PA	win	win1	6
54	1022	1.546	0	6	5	PA	win	win1	7
54	1022	4.778	1	4	5	PA	win	win1	8
54	1022	4.325	1	4	15	PA	win	win1	9
54	1022	1.691	1	2	10	PA	win	win1	10
54	1022	2.397	1	4	20	PA	win	win1	11
54	1022	2.2	1	10	15	PA	win	win1	12
54	1022	1.674	1	2	5	PA	win	win1	13
54	1022	1.351	1	10	20	PA	win	win1	14
54	1022	4.429	1	8	15	PA	win	win1	15
54	1022	2.787	1	4	25	PA	win	win1	16
54	1022	5.471	1	6	15	PA	win	win1	17
54	1022	3.667	1	2	15	PA	win	win1	18
54	1022	1.665	0	8	5	PA	win	win1	19
54	1022	4.859	1	6	20	PA	win	win1	20
54	1022	1.867	1	2	20	PA	win	win1	21
54	1022	1.652	0	6	10	PA	win	win1	22
54	1022	3.583	1	4	10	PA	win	win1	23
54	1022	2.715	1	8	20	PA	win	win1	24
54	1022	3.336	1	10	25	PA	win	win1	25
54	1022	2.491	1	10	15	PA	win	win1	26
54	1022	3.171	1	4	20	PA	win	win1	27
54	1022	4.773	1	2	10	PA	win	win1	28
54	1022	2.273	0	6	10	PA	win	win1	29
54	1022	6.003	1	6	25	PA	win	win1	30
54	1022	2.799	1	6	15	PA	win	win1	31
54	1022	1.614	1	10	20	PA	win	win1	32
54	1022	5.893	1	8	20	PA	win	win1	33
54	1022	2.332	1	10	25	PA	win	win1	34
54	1022	1.968	1	4	15	PA	win	win1	35
54	1022	2.664	1	2	25	PA	win	win1	36
54	1022	2.079	1	2	20	PA	win	win1	37
54	1022	2.532	1	2	5	PA	win	win1	38
54	1022	1.694	0	8	5	PA	win	win1	39
54	1022	1.694	0	4	5	PA	win	win1	40
54	1022	3.738	1	8	15	PA	win	win1	41
54	1022	1.481	1	2	15	PA	win	win1	42
54	1022	1.531	0	8	10	PA	win	win1	43
54	1022	3.065	0	6	5	PA	win	win1	44
54	1022	8.301	1	4	25	PA	win	win1	45
54	1022	1.392	0	10	5	PA	win	win1	46
54	1022	1.609	0	10	10	PA	win	win1	47
54	1022	2.558	1	4	10	PA	win	win1	48
54	1022	1.68	1	6	20	PA	win	win1	49
54	1022	1.558	1	8	25	PA	win	win1	50
55	1023	2.824	1	4	25	PA	win	win1	1
55	1023	2.05	0	6	5	PA	win	win1	2
55	1023	1.888	1	10	20	PA	win	win1	3
55	1023	2.074	1	2	20	PA	win	win1	4
55	1023	1.487	1	6	20	PA	win	win1	5
55	1023	1.986	0	2	5	PA	win	win1	6
55	1023	1.987	1	8	25	PA	win	win1	7
55	1023	2.734	0	10	5	PA	win	win1	8
55	1023	5.119	1	2	10	PA	win	win1	9
55	1023	3.168	1	6	15	PA	win	win1	10
55	1023	1.419	1	2	25	PA	win	win1	11
55	1023	2.894	1	2	15	PA	win	win1	12
55	1023	1.587	0	8	5	PA	win	win1	13
55	1023	2.028	1	10	10	PA	win	win1	14
55	1023	4.103	0	8	10	PA	win	win1	15
55	1023	2.56	1	8	15	PA	win	win1	16
55	1023	1.642	1	10	25	PA	win	win1	17
55	1023	1.496	1	4	15	PA	win	win1	18
55	1023	6.145	1	8	20	PA	win	win1	19
55	1023	1.66	1	4	20	PA	win	win1	20
55	1023	1.272	1	10	15	PA	win	win1	21
55	1023	1.344	1	6	25	PA	win	win1	22
55	1023	1.972	0	4	10	PA	win	win1	23
55	1023	2.193	1	6	10	PA	win	win1	24
55	1023	1.595	0	4	5	PA	win	win1	25
55	1023	2.011	1	10	20	PA	win	win1	26
55	1023	6.187	1	6	10	PA	win	win1	27
55	1023	1.715	1	10	25	PA	win	win1	28
55	1023	1.611	1	6	15	PA	win	win1	29
55	1023	1.278	1	10	15	PA	win	win1	30
55	1023	3.621	1	2	15	PA	win	win1	31
55	1023	2.917	1	2	20	PA	win	win1	32
55	1023	1.083	0	6	5	PA	win	win1	33
55	1023	1.411	1	8	20	PA	win	win1	34
55	1023	1.339	1	4	25	PA	win	win1	35
55	1023	2.498	1	6	20	PA	win	win1	36
55	1023	1.516	1	8	15	PA	win	win1	37
55	1023	1.8	1	8	10	PA	win	win1	38
55	1023	6.676	1	6	25	PA	win	win1	39
55	1023	1.943	0	8	5	PA	win	win1	40
55	1023	1.483	1	4	20	PA	win	win1	41
55	1023	2.059	1	2	25	PA	win	win1	42
55	1023	3.391	0	4	10	PA	win	win1	43
55	1023	1.675	1	4	15	PA	win	win1	44
55	1023	1.589	0	10	10	PA	win	win1	45
55	1023	1.322	0	2	5	PA	win	win1	46
55	1023	1.905	0	10	5	PA	win	win1	47
55	1023	2.009	1	2	10	PA	win	win1	48
55	1023	3.549	0	4	5	PA	win	win1	49
55	1023	1.618	1	8	25	PA	win	win1	50
15	1024	1.932	0	10	5	PA	win	win1	1
15	1024	1.753	0	8	20	PA	win	win1	2
15	1024	1.101	0	10	15	PA	win	win1	3
15	1024	1.195	0	8	10	PA	win	win1	4
15	1024	2.261	1	6	20	PA	win	win1	5
15	1024	2.02	1	2	20	PA	win	win1	6
15	1024	1.646	1	6	15	PA	win	win1	7
15	1024	1.342	1	4	25	PA	win	win1	8
15	1024	1.882	1	4	5	PA	win	win1	9
15	1024	1.345	1	2	15	PA	win	win1	10
15	1024	1.965	1	2	5	PA	win	win1	11
15	1024	2.825	0	6	5	PA	win	win1	12
15	1024	1.177	1	4	15	PA	win	win1	13
15	1024	2.636	1	8	25	PA	win	win1	14
15	1024	2.397	0	10	10	PA	win	win1	15
15	1024	1.103	0	10	20	PA	win	win1	16
15	1024	1.333	1	4	20	PA	win	win1	17
15	1024	1.282	1	2	25	PA	win	win1	18
15	1024	1.617	1	6	25	PA	win	win1	19
15	1024	1.242	0	8	15	PA	win	win1	20
15	1024	1.058	1	2	10	PA	win	win1	21
15	1024	1.13	0	10	25	PA	win	win1	22
15	1024	0.943	1	4	10	PA	win	win1	23
15	1024	1.195	0	6	10	PA	win	win1	24
15	1024	1.357	0	8	5	PA	win	win1	25
15	1024	1.87	1	4	10	PA	win	win1	26
15	1024	1.334	0	8	20	PA	win	win1	27
15	1024	1.483	0	6	5	PA	win	win1	28
15	1024	0.904	0	10	15	PA	win	win1	29
15	1024	1.471	1	4	25	PA	win	win1	30
15	1024	1.885	0	10	20	PA	win	win1	31
15	1024	1.156	1	4	20	PA	win	win1	32
15	1024	1.272	0	8	10	PA	win	win1	33
15	1024	0.903	0	6	25	PA	win	win1	34
15	1024	2.149	1	2	5	PA	win	win1	35
15	1024	2.209	0	6	15	PA	win	win1	36
15	1024	1.691	1	6	20	PA	win	win1	37
15	1024	0.945	0	8	5	PA	win	win1	38
15	1024	0.973	0	10	10	PA	win	win1	39
15	1024	1.072	1	2	10	PA	win	win1	40
15	1024	1.263	1	4	15	PA	win	win1	41
15	1024	0.806	0	10	5	PA	win	win1	42
15	1024	1.168	0	4	5	PA	win	win1	43
15	1024	1.028	1	2	15	PA	win	win1	44
15	1024	0.796	0	8	25	PA	win	win1	45
15	1024	0.895	1	2	20	PA	win	win1	46
15	1024	3.189	1	10	25	PA	win	win1	47
15	1024	1.319	0	8	15	PA	win	win1	48
15	1024	0.916	1	2	25	PA	win	win1	49
15	1024	1.122	0	6	10	PA	win	win1	50
36	1025	1.771	0	10	10	PA	win	win1	1
36	1025	1.192	1	4	25	PA	win	win1	2
36	1025	1.937	1	8	15	PA	win	win1	3
36	1025	1.535	1	6	25	PA	win	win1	4
36	1025	1.883	1	6	10	PA	win	win1	5
36	1025	1.714	0	10	15	PA	win	win1	6
36	1025	1.624	1	2	10	PA	win	win1	7
36	1025	2.376	1	8	25	PA	win	win1	8
36	1025	1.811	1	2	5	PA	win	win1	9
36	1025	6.484	1	8	10	PA	win	win1	10
36	1025	3.963	1	4	5	PA	win	win1	11
36	1025	2.919	1	6	15	PA	win	win1	12
36	1025	1.86	1	2	25	PA	win	win1	13
36	1025	1.996	1	4	15	PA	win	win1	14
36	1025	1.638	1	2	15	PA	win	win1	15
36	1025	1.463	1	2	20	PA	win	win1	16
36	1025	2.366	1	4	10	PA	win	win1	17
36	1025	3.193	0	6	5	PA	win	win1	18
36	1025	2.684	0	8	5	PA	win	win1	19
36	1025	1.666	1	6	20	PA	win	win1	20
36	1025	3.474	1	10	25	PA	win	win1	21
36	1025	2.816	0	10	5	PA	win	win1	22
36	1025	2.61	1	8	20	PA	win	win1	23
36	1025	3.459	1	10	20	PA	win	win1	24
36	1025	1.907	1	4	20	PA	win	win1	25
36	1025	1.598	1	2	15	PA	win	win1	26
36	1025	2.368	1	10	20	PA	win	win1	27
36	1025	2.076	0	6	20	PA	win	win1	28
36	1025	1.715	0	10	15	PA	win	win1	29
36	1025	1.824	1	8	20	PA	win	win1	30
36	1025	1.977	0	6	5	PA	win	win1	31
36	1025	2.164	0	8	10	PA	win	win1	32
36	1025	1.751	1	2	10	PA	win	win1	33
36	1025	2.467	1	2	5	PA	win	win1	34
36	1025	2.155	1	4	15	PA	win	win1	35
36	1025	2.135	1	6	25	PA	win	win1	36
36	1025	2.171	1	8	15	PA	win	win1	37
36	1025	2.655	1	8	25	PA	win	win1	38
36	1025	2.383	0	10	5	PA	win	win1	39
36	1025	3.698	1	6	10	PA	win	win1	40
36	1025	1.8	1	4	10	PA	win	win1	41
36	1025	2.554	1	6	15	PA	win	win1	42
36	1025	1.254	1	4	20	PA	win	win1	43
36	1025	1.478	1	4	25	PA	win	win1	44
36	1025	1.269	1	2	20	PA	win	win1	45
36	1025	1.948	1	10	25	PA	win	win1	46
36	1025	1.696	0	8	5	PA	win	win1	47
36	1025	1.887	0	10	10	PA	win	win1	48
36	1025	1.989	0	4	5	PA	win	win1	49
36	1025	2.256	1	2	25	PA	win	win1	50
38	1026	2.419	1	4	25	PA	win	win1	1
38	1026	2.612	1	4	15	PA	win	win1	2
38	1026	2.373	0	8	10	PA	win	win1	3
38	1026	2.968	1	4	20	PA	win	win1	4
38	1026	1.995	0	10	5	PA	win	win1	5
38	1026	2.029	1	10	20	PA	win	win1	6
38	1026	3.158	1	6	15	PA	win	win1	7
38	1026	4.617	1	4	10	PA	win	win1	8
38	1026	1.715	0	8	5	PA	win	win1	9
38	1026	2.456	0	6	5	PA	win	win1	10
38	1026	1.928	0	10	10	PA	win	win1	11
38	1026	1.964	1	6	20	PA	win	win1	12
38	1026	2.007	1	4	5	PA	win	win1	13
38	1026	1.353	1	2	20	PA	win	win1	14
38	1026	1.053	1	2	25	PA	win	win1	15
38	1026	3.388	1	8	15	PA	win	win1	16
38	1026	1.646	1	2	15	PA	win	win1	17
38	1026	1.398	1	2	5	PA	win	win1	18
38	1026	2.608	1	6	10	PA	win	win1	19
38	1026	2.746	1	6	25	PA	win	win1	20
38	1026	2.19	1	8	25	PA	win	win1	21
38	1026	1.408	1	8	20	PA	win	win1	22
38	1026	1.618	0	10	15	PA	win	win1	23
38	1026	1.619	1	2	10	PA	win	win1	24
38	1026	2.036	1	10	25	PA	win	win1	25
38	1026	1.815	1	4	20	PA	win	win1	26
38	1026	1.48	1	2	10	PA	win	win1	27
38	1026	1.519	0	8	10	PA	win	win1	28
38	1026	1.924	1	10	25	PA	win	win1	29
38	1026	1.265	0	10	15	PA	win	win1	30
38	1026	1.536	1	4	10	PA	win	win1	31
38	1026	1.157	0	10	5	PA	win	win1	32
38	1026	1.872	1	4	15	PA	win	win1	33
38	1026	1.471	1	2	5	PA	win	win1	34
38	1026	1.55	0	10	10	PA	win	win1	35
38	1026	2.266	1	4	25	PA	win	win1	36
38	1026	1.849	1	6	15	PA	win	win1	37
38	1026	3.265	0	8	5	PA	win	win1	38
38	1026	1.193	1	2	15	PA	win	win1	39
38	1026	1.595	1	2	20	PA	win	win1	40
38	1026	1.453	1	6	25	PA	win	win1	41
38	1026	0.94	1	2	25	PA	win	win1	42
38	1026	1.664	1	8	15	PA	win	win1	43
38	1026	1.248	1	6	20	PA	win	win1	44
38	1026	7.408	0	6	5	PA	win	win1	45
38	1026	1.322	1	6	10	PA	win	win1	46
38	1026	1.59	1	8	20	PA	win	win1	47
38	1026	1.376	1	4	5	PA	win	win1	48
38	1026	1.355	1	8	25	PA	win	win1	49
38	1026	1.247	1	10	20	PA	win	win1	50
39	1027	3.177	1	6	15	PA	win	win1	1
39	1027	2.579	1	2	10	PA	win	win1	2
39	1027	1.51	1	4	20	PA	win	win1	3
39	1027	2.267	1	2	20	PA	win	win1	4
39	1027	2.219	1	4	10	PA	win	win1	5
39	1027	1.892	1	10	20	PA	win	win1	6
39	1027	5.065	1	2	25	PA	win	win1	7
39	1027	2.049	1	8	20	PA	win	win1	8
39	1027	2.593	1	6	25	PA	win	win1	9
39	1027	2.091	1	4	5	PA	win	win1	10
39	1027	1.745	1	2	15	PA	win	win1	11
39	1027	1.117	1	4	15	PA	win	win1	12
39	1027	0.962	1	2	5	PA	win	win1	13
39	1027	1.269	1	8	5	PA	win	win1	14
39	1027	1.788	1	8	10	PA	win	win1	15
39	1027	1.934	1	10	15	PA	win	win1	16
39	1027	2.187	0	6	5	PA	win	win1	17
39	1027	1.998	1	6	20	PA	win	win1	18
39	1027	2.344	1	8	25	PA	win	win1	19
39	1027	1.628	1	10	25	PA	win	win1	20
39	1027	1.557	0	10	5	PA	win	win1	21
39	1027	2.121	1	4	25	PA	win	win1	22
39	1027	7.581	0	10	10	PA	win	win1	23
39	1027	2.072	1	6	10	PA	win	win1	24
39	1027	2.151	1	8	15	PA	win	win1	25
39	1027	3.183	0	6	5	PA	win	win1	26
39	1027	1.882	1	4	25	PA	win	win1	27
39	1027	1.649	1	4	15	PA	win	win1	28
39	1027	2.513	1	8	25	PA	win	win1	29
39	1027	1.294	1	2	25	PA	win	win1	30
39	1027	2.237	0	8	10	PA	win	win1	31
39	1027	2.557	1	8	20	PA	win	win1	32
39	1027	1.969	1	4	10	PA	win	win1	33
39	1027	3.132	1	10	20	PA	win	win1	34
39	1027	2.095	0	8	5	PA	win	win1	35
39	1027	1.621	1	2	20	PA	win	win1	36
39	1027	1.598	1	2	5	PA	win	win1	37
39	1027	1.344	1	6	20	PA	win	win1	38
39	1027	1.868	1	6	15	PA	win	win1	39
39	1027	1.596	1	4	5	PA	win	win1	40
39	1027	1.054	1	2	10	PA	win	win1	41
39	1027	0.79	1	2	15	PA	win	win1	42
39	1027	1.904	1	6	25	PA	win	win1	43
39	1027	1.438	1	8	15	PA	win	win1	44
39	1027	1.236	1	4	20	PA	win	win1	45
39	1027	1.045	1	10	15	PA	win	win1	46
39	1027	0.861	1	6	10	PA	win	win1	47
39	1027	1.741	0	10	10	PA	win	win1	48
39	1027	1.217	1	10	25	PA	win	win1	49
39	1027	1.228	0	10	5	PA	win	win1	50
43	1028	1.748	0	8	5	PA	win	win1	1
43	1028	1.178	1	2	25	PA	win	win1	2
43	1028	1.19	1	6	20	PA	win	win1	3
43	1028	1.593	1	6	15	PA	win	win1	4
43	1028	1.282	0	10	5	PA	win	win1	5
43	1028	2.16	1	8	20	PA	win	win1	6
43	1028	1.815	0	6	5	PA	win	win1	7
43	1028	1.299	1	8	25	PA	win	win1	8
43	1028	1.367	1	4	15	PA	win	win1	9
43	1028	2.425	0	6	10	PA	win	win1	10
43	1028	1.379	1	8	15	PA	win	win1	11
43	1028	1.214	1	4	10	PA	win	win1	12
43	1028	0.967	1	2	5	PA	win	win1	13
43	1028	3.734	1	10	15	PA	win	win1	14
43	1028	0.969	1	2	20	PA	win	win1	15
43	1028	1.352	0	8	10	PA	win	win1	16
43	1028	0.889	1	4	20	PA	win	win1	17
43	1028	0.989	1	4	25	PA	win	win1	18
43	1028	1.349	1	6	25	PA	win	win1	19
43	1028	1.135	0	10	10	PA	win	win1	20
43	1028	1.082	1	10	20	PA	win	win1	21
43	1028	1.159	1	10	25	PA	win	win1	22
43	1028	1.071	1	2	10	PA	win	win1	23
43	1028	0.651	1	2	15	PA	win	win1	24
43	1028	0.727	1	4	5	PA	win	win1	25
43	1028	0.902	0	6	5	PA	win	win1	26
43	1028	1.053	1	4	25	PA	win	win1	27
43	1028	1.341	1	2	10	PA	win	win1	28
43	1028	0.946	0	8	10	PA	win	win1	29
43	1028	0.94	1	6	20	PA	win	win1	30
43	1028	0.998	1	2	25	PA	win	win1	31
43	1028	1.104	1	2	20	PA	win	win1	32
43	1028	0.822	1	8	25	PA	win	win1	33
43	1028	0.986	0	10	10	PA	win	win1	34
43	1028	0.956	1	4	15	PA	win	win1	35
43	1028	1.524	1	6	25	PA	win	win1	36
43	1028	2.264	1	10	25	PA	win	win1	37
43	1028	1.726	0	10	15	PA	win	win1	38
43	1028	0.953	1	2	5	PA	win	win1	39
43	1028	1.11	0	8	5	PA	win	win1	40
43	1028	1.11	1	4	5	PA	win	win1	41
43	1028	1.16	1	8	20	PA	win	win1	42
43	1028	0.965	1	4	20	PA	win	win1	43
43	1028	2.017	1	8	15	PA	win	win1	44
43	1028	1.552	1	6	10	PA	win	win1	45
43	1028	1.002	1	10	20	PA	win	win1	46
43	1028	0.962	1	6	15	PA	win	win1	47
43	1028	1.03	1	4	10	PA	win	win1	48
43	1028	1.092	0	10	5	PA	win	win1	49
43	1028	0.773	1	2	15	PA	win	win1	50
58	1029	1.188	1	6	15	PA	win	win1	1
58	1029	1.495	0	10	10	PA	win	win1	2
58	1029	0.741	1	10	25	PA	win	win1	3
58	1029	1.265	1	10	15	PA	win	win1	4
58	1029	1.136	1	4	5	PA	win	win1	5
58	1029	0.797	1	2	5	PA	win	win1	6
58	1029	0.895	1	6	25	PA	win	win1	7
58	1029	0.933	1	6	10	PA	win	win1	8
58	1029	0.882	1	4	15	PA	win	win1	9
58	1029	1.585	1	8	20	PA	win	win1	10
58	1029	0.771	1	2	25	PA	win	win1	11
58	1029	0.711	1	6	5	PA	win	win1	12
58	1029	0.652	1	2	10	PA	win	win1	13
58	1029	0.66	1	2	15	PA	win	win1	14
58	1029	0.724	1	8	10	PA	win	win1	15
58	1029	0.873	1	6	20	PA	win	win1	16
58	1029	0.704	1	2	20	PA	win	win1	17
58	1029	0.782	1	10	20	PA	win	win1	18
58	1029	0.505	1	4	10	PA	win	win1	19
58	1029	1.911	1	10	5	PA	win	win1	20
58	1029	0.853	1	4	20	PA	win	win1	21
58	1029	0.829	1	8	15	PA	win	win1	22
58	1029	1.181	1	8	5	PA	win	win1	23
58	1029	0.744	1	4	25	PA	win	win1	24
58	1029	0.684	1	8	25	PA	win	win1	25
58	1029	0.624	1	10	5	PA	win	win1	26
58	1029	0.889	1	10	20	PA	win	win1	27
58	1029	0.808	1	2	25	PA	win	win1	28
58	1029	1.009	1	2	5	PA	win	win1	29
58	1029	0.819	1	6	25	PA	win	win1	30
58	1029	0.844	1	6	15	PA	win	win1	31
58	1029	0.676	1	8	15	PA	win	win1	32
58	1029	1.227	1	6	5	PA	win	win1	33
58	1029	2.636	1	6	20	PA	win	win1	34
58	1029	0.613	1	2	20	PA	win	win1	35
58	1029	1.91	1	4	5	PA	win	win1	36
58	1029	0.484	1	10	10	PA	win	win1	37
58	1029	0.721	1	4	20	PA	win	win1	38
58	1029	0.728	1	10	25	PA	win	win1	39
58	1029	0.701	1	2	10	PA	win	win1	40
58	1029	0.651	1	4	25	PA	win	win1	41
58	1029	2.611	1	8	10	PA	win	win1	42
58	1029	0.732	1	8	25	PA	win	win1	43
58	1029	0.961	1	6	10	PA	win	win1	44
58	1029	1.356	1	8	20	PA	win	win1	45
58	1029	0.847	1	8	5	PA	win	win1	46
58	1029	3.535	1	10	15	PA	win	win1	47
58	1029	0.724	1	4	10	PA	win	win1	48
58	1029	0.609	1	4	15	PA	win	win1	49
58	1029	0.707	1	2	15	PA	win	win1	50
64	1030	1.359	1	8	20	PA	win	win1	1
64	1030	1.098	1	2	25	PA	win	win1	2
64	1030	0.793	1	6	25	PA	win	win1	3
64	1030	1.168	1	6	15	PA	win	win1	4
64	1030	0.348	1	4	15	PA	win	win1	5
64	1030	0.382	1	4	5	PA	win	win1	6
64	1030	0.716	1	4	20	PA	win	win1	7
64	1030	5.233	1	2	20	PA	win	win1	8
64	1030	0.993	1	8	15	PA	win	win1	9
64	1030	1.306	0	6	5	PA	win	win1	10
64	1030	1.304	0	10	10	PA	win	win1	11
64	1030	0.926	0	10	5	PA	win	win1	12
64	1030	1.427	1	6	10	PA	win	win1	13
64	1030	1.264	1	2	10	PA	win	win1	14
64	1030	0.996	1	2	15	PA	win	win1	15
64	1030	0.646	1	8	25	PA	win	win1	16
64	1030	0.894	1	6	20	PA	win	win1	17
64	1030	1.937	1	10	20	PA	win	win1	18
64	1030	0.602	1	10	25	PA	win	win1	19
64	1030	0.746	0	2	5	PA	win	win1	20
64	1030	0.998	1	4	25	PA	win	win1	21
64	1030	0.96	1	4	10	PA	win	win1	22
64	1030	0.572	1	8	10	PA	win	win1	23
64	1030	2.007	0	10	15	PA	win	win1	24
64	1030	1.552	0	8	5	PA	win	win1	25
64	1030	1.101	1	4	5	PA	win	win1	26
64	1030	4.307	0	10	10	PA	win	win1	27
64	1030	1.168	1	8	20	PA	win	win1	28
64	1030	1.31	1	8	15	PA	win	win1	29
64	1030	0.763	1	2	20	PA	win	win1	30
64	1030	0.676	1	2	25	PA	win	win1	31
64	1030	0.883	1	2	10	PA	win	win1	32
64	1030	1.025	1	4	20	PA	win	win1	33
64	1030	1.299	1	8	25	PA	win	win1	34
64	1030	1.961	1	10	15	PA	win	win1	35
64	1030	1.302	0	6	5	PA	win	win1	36
64	1030	1.452	1	6	25	PA	win	win1	37
64	1030	2.387	1	6	10	PA	win	win1	38
64	1030	1.157	1	2	5	PA	win	win1	39
64	1030	1.93	0	8	10	PA	win	win1	40
64	1030	0.054	0	6	20	PA	win	win1	41
64	1030	2.007	1	10	25	PA	win	win1	42
64	1030	1.346	1	2	15	PA	win	win1	43
64	1030	1.733	0	10	5	PA	win	win1	44
64	1030	1.098	1	4	10	PA	win	win1	45
64	1030	1.776	0	8	5	PA	win	win1	46
64	1030	1.362	1	6	15	PA	win	win1	47
64	1030	1.518	1	4	15	PA	win	win1	48
64	1030	1.667	1	10	20	PA	win	win1	49
64	1030	1.181	1	4	25	PA	win	win1	50
65	1031	4.732	0	10	5	PA	win	win1	1
65	1031	1.696	1	2	15	PA	win	win1	2
65	1031	1.503	1	2	10	PA	win	win1	3
65	1031	0.885	1	2	20	PA	win	win1	4
65	1031	1.203	1	6	10	PA	win	win1	5
65	1031	1.598	1	10	15	PA	win	win1	6
65	1031	1.128	1	10	25	PA	win	win1	7
65	1031	1.036	1	2	25	PA	win	win1	8
65	1031	1.725	1	8	15	PA	win	win1	9
65	1031	15.794	1	6	5	PA	win	win1	10
65	1031	0.732	1	4	25	PA	win	win1	11
65	1031	1.169	1	6	25	PA	win	win1	12
65	1031	3.133	1	4	15	PA	win	win1	13
65	1031	1.345	1	4	5	PA	win	win1	14
65	1031	0.909	1	6	15	PA	win	win1	15
65	1031	2.01	0	8	5	PA	win	win1	16
65	1031	1.116	1	8	10	PA	win	win1	17
65	1031	4.537	1	10	10	PA	win	win1	18
65	1031	1.269	1	4	10	PA	win	win1	19
65	1031	1.005	1	8	25	PA	win	win1	20
65	1031	1.246	1	4	20	PA	win	win1	21
65	1031	2.343	1	2	5	PA	win	win1	22
65	1031	1.378	1	6	20	PA	win	win1	23
65	1031	1.518	1	10	20	PA	win	win1	24
65	1031	1.203	1	8	20	PA	win	win1	25
65	1031	1.206	1	8	15	PA	win	win1	26
65	1031	0.686	1	8	25	PA	win	win1	27
65	1031	0.942	1	10	25	PA	win	win1	28
65	1031	0.866	1	8	10	PA	win	win1	29
65	1031	0.794	1	2	15	PA	win	win1	30
65	1031	1.02	1	4	25	PA	win	win1	31
65	1031	0.837	1	4	20	PA	win	win1	32
65	1031	1.942	1	10	10	PA	win	win1	33
65	1031	0.786	1	4	5	PA	win	win1	34
65	1031	0.78	1	6	25	PA	win	win1	35
65	1031	0.936	1	2	10	PA	win	win1	36
65	1031	2.651	1	4	15	PA	win	win1	37
65	1031	0.653	1	2	25	PA	win	win1	38
65	1031	0.829	1	2	20	PA	win	win1	39
65	1031	1.093	1	6	15	PA	win	win1	40
65	1031	1.372	1	8	20	PA	win	win1	41
65	1031	1.734	1	8	5	PA	win	win1	42
65	1031	0.954	1	6	5	PA	win	win1	43
65	1031	1.271	1	10	20	PA	win	win1	44
65	1031	1.958	0	10	5	PA	win	win1	45
65	1031	1.544	1	6	10	PA	win	win1	46
65	1031	1.206	1	4	10	PA	win	win1	47
65	1031	2.047	1	10	15	PA	win	win1	48
65	1031	1.758	1	2	5	PA	win	win1	49
65	1031	0.682	1	6	20	PA	win	win1	50
67	1032	3.151	1	6	5	PA	win	win1	1
67	1032	3.396	1	4	20	PA	win	win1	2
67	1032	1.416	1	8	15	PA	win	win1	3
67	1032	2.246	1	4	15	PA	win	win1	4
67	1032	2.795	1	6	20	PA	win	win1	5
67	1032	3.488	1	8	10	PA	win	win1	6
67	1032	2.272	1	2	20	PA	win	win1	7
67	1032	1.71	1	4	25	PA	win	win1	8
67	1032	1.117	1	10	15	PA	win	win1	9
67	1032	1.361	1	4	10	PA	win	win1	10
67	1032	0.673	1	2	10	PA	win	win1	11
67	1032	1.786	1	10	25	PA	win	win1	12
67	1032	1.43	1	6	25	PA	win	win1	13
67	1032	1.047	1	2	5	PA	win	win1	14
67	1032	0.705	1	8	20	PA	win	win1	15
67	1032	0.877	1	10	5	PA	win	win1	16
67	1032	1.644	1	8	5	PA	win	win1	17
67	1032	1.209	1	10	20	PA	win	win1	18
67	1032	0.775	1	8	25	PA	win	win1	19
67	1032	0.834	1	4	5	PA	win	win1	20
67	1032	0.955	1	6	10	PA	win	win1	21
67	1032	1.101	1	2	15	PA	win	win1	22
67	1032	1.27	1	6	15	PA	win	win1	23
67	1032	1.655	1	10	10	PA	win	win1	24
67	1032	1.617	1	2	25	PA	win	win1	25
67	1032	1.641	1	8	5	PA	win	win1	26
67	1032	1.648	1	4	20	PA	win	win1	27
67	1032	0.556	1	10	15	PA	win	win1	28
67	1032	1.386	1	2	10	PA	win	win1	29
67	1032	0.66	1	8	25	PA	win	win1	30
67	1032	1.371	1	10	20	PA	win	win1	31
67	1032	0.911	1	8	10	PA	win	win1	32
67	1032	9.175	1	8	15	PA	win	win1	33
67	1032	1.628	1	4	5	PA	win	win1	34
67	1032	0.803	1	4	10	PA	win	win1	35
67	1032	4.754	1	10	5	PA	win	win1	36
67	1032	0.595	1	6	20	PA	win	win1	37
67	1032	3.736	1	6	25	PA	win	win1	38
67	1032	3.707	1	10	25	PA	win	win1	39
67	1032	1.259	1	2	20	PA	win	win1	40
67	1032	0.67	1	2	25	PA	win	win1	41
67	1032	0.528	1	4	15	PA	win	win1	42
67	1032	1.589	1	6	5	PA	win	win1	43
67	1032	2.097	1	8	20	PA	win	win1	44
67	1032	0.881	1	2	15	PA	win	win1	45
67	1032	0.719	1	2	5	PA	win	win1	46
67	1032	2.847	1	4	25	PA	win	win1	47
67	1032	0.951	1	6	10	PA	win	win1	48
67	1032	4.442	1	6	15	PA	win	win1	49
67	1032	0.762	1	10	10	PA	win	win1	50
68	1033	1.126	0	4	5	PA	win	win1	1
68	1033	0.697	0	8	5	PA	win	win1	2
68	1033	0.815	1	8	20	PA	win	win1	3
68	1033	0.91	1	2	15	PA	win	win1	4
68	1033	0.843	1	8	25	PA	win	win1	5
68	1033	0.788	1	4	25	PA	win	win1	6
68	1033	0.726	0	2	5	PA	win	win1	7
68	1033	0.682	0	6	5	PA	win	win1	8
68	1033	0.442	1	4	10	PA	win	win1	9
68	1033	0.754	1	10	10	PA	win	win1	10
68	1033	0.867	1	6	10	PA	win	win1	11
68	1033	0.892	1	10	20	PA	win	win1	12
68	1033	0.996	1	8	10	PA	win	win1	13
68	1033	0.864	1	10	15	PA	win	win1	14
68	1033	0.478	1	4	20	PA	win	win1	15
68	1033	0.521	1	10	25	PA	win	win1	16
68	1033	1.526	0	10	5	PA	win	win1	17
68	1033	0.916	0	2	10	PA	win	win1	18
68	1033	1.191	1	8	15	PA	win	win1	19
68	1033	0.489	1	6	25	PA	win	win1	20
68	1033	0.702	1	2	20	PA	win	win1	21
68	1033	0.541	1	6	20	PA	win	win1	22
68	1033	1.062	1	6	15	PA	win	win1	23
68	1033	0.827	1	2	25	PA	win	win1	24
68	1033	0.57	1	4	15	PA	win	win1	25
68	1033	0.794	1	8	15	PA	win	win1	26
68	1033	1.529	0	8	5	PA	win	win1	27
68	1033	1.094	1	8	20	PA	win	win1	28
68	1033	1.126	1	4	15	PA	win	win1	29
68	1033	0.931	1	4	25	PA	win	win1	30
68	1033	1.376	0	4	5	PA	win	win1	31
68	1033	1.112	0	6	10	PA	win	win1	32
68	1033	0.434	1	10	20	PA	win	win1	33
68	1033	1.578	1	10	15	PA	win	win1	34
68	1033	0.374	0	2	5	PA	win	win1	35
68	1033	0.747	1	2	15	PA	win	win1	36
68	1033	1.308	0	4	10	PA	win	win1	37
68	1033	0.668	1	6	25	PA	win	win1	38
68	1033	0.713	1	4	20	PA	win	win1	39
68	1033	1.283	1	2	25	PA	win	win1	40
68	1033	0.99	0	10	10	PA	win	win1	41
68	1033	0.696	0	6	15	PA	win	win1	42
68	1033	0.764	1	6	5	PA	win	win1	43
68	1033	1.165	1	8	25	PA	win	win1	44
68	1033	1.782	0	8	10	PA	win	win1	45
68	1033	0.719	0	10	5	PA	win	win1	46
68	1033	0.845	1	2	20	PA	win	win1	47
68	1033	1.35	1	6	20	PA	win	win1	48
68	1033	1.1	0	2	10	PA	win	win1	49
68	1033	0.573	1	10	25	PA	win	win1	50
69	1034	2.651	1	2	20	PA	win	win1	1
69	1034	2.514	1	6	15	PA	win	win1	2
69	1034	2.414	1	6	25	PA	win	win1	3
69	1034	1.469	1	10	20	PA	win	win1	4
69	1034	5.219	1	6	20	PA	win	win1	5
69	1034	0.956	1	4	20	PA	win	win1	6
69	1034	13.045	1	8	25	PA	win	win1	7
69	1034	2.834	1	10	15	PA	win	win1	8
69	1034	2.306	1	8	20	PA	win	win1	9
69	1034	2.07	1	8	5	PA	win	win1	10
69	1034	2.917	1	6	10	PA	win	win1	11
69	1034	2.118	1	2	5	PA	win	win1	12
69	1034	1.685	1	4	25	PA	win	win1	13
69	1034	9.411	1	4	10	PA	win	win1	14
69	1034	2.876	1	2	25	PA	win	win1	15
69	1034	1.408	1	2	10	PA	win	win1	16
69	1034	1.144	1	10	5	PA	win	win1	17
69	1034	3.935	1	2	15	PA	win	win1	18
69	1034	1.924	1	8	10	PA	win	win1	19
69	1034	5.121	1	4	15	PA	win	win1	20
69	1034	2.599	1	10	25	PA	win	win1	21
69	1034	1.917	1	4	5	PA	win	win1	22
69	1034	37.067	1	6	5	PA	win	win1	23
69	1034	1.598	1	8	15	PA	win	win1	24
69	1034	10.717	1	10	10	PA	win	win1	25
69	1034	3.926	1	10	25	PA	win	win1	26
69	1034	2.994	1	2	20	PA	win	win1	27
69	1034	1.347	1	2	15	PA	win	win1	28
69	1034	2.175	1	6	20	PA	win	win1	29
69	1034	1.954	1	6	10	PA	win	win1	30
69	1034	2.802	1	10	5	PA	win	win1	31
69	1034	19.074	1	6	5	PA	win	win1	32
69	1034	1.237	1	8	5	PA	win	win1	33
69	1034	0.814	1	2	10	PA	win	win1	34
69	1034	1.069	1	4	20	PA	win	win1	35
69	1034	31.329	1	8	20	PA	win	win1	36
69	1034	20.936	1	10	20	PA	win	win1	37
69	1034	1.146	1	8	15	PA	win	win1	38
69	1034	10.879	1	6	15	PA	win	win1	39
69	1034	0.979	1	6	25	PA	win	win1	40
69	1034	69.253	1	4	15	PA	win	win1	41
69	1034	1.296	1	8	10	PA	win	win1	42
69	1034	1.476	1	4	5	PA	win	win1	43
69	1034	1.426	1	2	5	PA	win	win1	44
69	1034	0.894	1	4	10	PA	win	win1	45
69	1034	0.626	1	10	10	PA	win	win1	46
69	1034	2.519	1	4	25	PA	win	win1	47
69	1034	0.986	1	2	25	PA	win	win1	48
69	1034	23.305	1	10	15	PA	win	win1	49
69	1034	5.684	1	8	25	PA	win	win1	50
